,parcode,rt,choice,trial,item_left,item_right
0,1,4261.735,-1,0,-1.170500554541026,-1.9898509427197442
1,1,3559.258,1,1,1.2875506099951286,1.170500554541026
2,1,3754.464,1,2,1.170500554541026,1.4046006654492311
3,1,2431.751,-1,3,0.8973837584814532,1.170500554541026
4,1,2199.342,-1,4,1.4826340357519663,1.170500554541026
5,1,3269.922,-1,5,-1.092467184238291,-1.170500554541026
6,1,6606.698,-1,6,0.07803337030273506,0.0
7,1,3642.146,1,7,-1.170500554541026,-0.4682002218164104
8,1,5213.48,1,8,1.170500554541026,1.248533924843761
9,1,5511.334,1,9,-1.170500554541026,-0.8193503881787182
10,1,2007.957,-1,10,1.3265672951464962,1.170500554541026
11,1,3124.521,1,11,0.0,-0.1170500554541026
12,1,1978.076,-1,12,1.170500554541026,0.9364004436328208
13,1,2508.548,1,13,1.170500554541026,1.2875506099951286
14,1,3907.246,1,14,-1.170500554541026,-1.7167341466601715
15,1,3482.062,1,15,-0.4291835366650429,0.0
16,1,1823.377,-1,16,0.6242669624218805,0.0
17,1,5111.944,-1,17,-0.1170500554541026,0.0
18,1,4920.474,-1,18,-0.8193503881787182,-1.170500554541026
19,1,1869.935,-1,19,0.9364004436328208,1.170500554541026
20,1,1705.811,-1,20,1.170500554541026,1.4826340357519663
21,1,3083.54,-1,21,-1.170500554541026,-1.4436173506005987
22,1,2474.714,-1,22,0.1170500554541026,0.0
23,1,2272.349,-1,23,0.0,-0.4291835366650429
24,1,3790.48,-1,24,1.4046006654492311,1.170500554541026
25,1,2046.062,-1,25,1.170500554541026,0.8973837584814532
26,1,3822.251,1,26,1.170500554541026,1.3265672951464962
27,1,3347.54,-1,27,-1.170500554541026,-1.092467184238291
28,1,2252.245,1,28,-2.0678843130224793,-1.170500554541026
29,1,2083.424,1,29,-1.9898509427197442,-1.170500554541026
30,1,4155.502,1,30,-1.7947675169629065,-1.170500554541026
31,1,2550.939,-1,31,-1.170500554541026,-2.0678843130224793
32,1,5814.551,-1,32,-1.170500554541026,-1.7947675169629065
33,1,1428.2879999999998,-1,33,1.248533924843761,1.170500554541026
34,1,1743.991,-1,34,0.0,0.1170500554541026
35,1,2329.644,1,35,-1.4436173506005987,-1.170500554541026
36,1,3381.75,1,36,0.0,0.6242669624218805
37,1,2209.993,-1,37,0.0,0.07803337030273506
38,1,3602.313,1,38,-1.7167341466601715,-1.170500554541026
39,1,2506.099,-1,39,-0.4682002218164104,-1.170500554541026
40,1,7964.300999999998,1,40,-1.8728008872656416,-1.170500554541026
41,1,1743.8239999999994,-1,41,1.170500554541026,0.8583670733300858
42,1,2122.334,-1,42,1.0144338139355558,1.170500554541026
43,1,2518.011,1,43,0.0,0.4291835366650429
44,1,2201.475,-1,44,-0.9754171287841883,-1.170500554541026
45,1,2131.478,-1,45,0.9754171287841883,1.170500554541026
46,1,2017.429,-1,46,-0.6242669624218805,0.0
47,1,3241.381,1,47,0.0,0.19508342575683765
48,1,2528.386,-1,48,-1.170500554541026,-1.8728008872656416
49,1,1679.8729999999994,1,49,0.8193503881787182,1.170500554541026
50,1,1513.221,-1,50,-1.170500554541026,-1.5216507209033339
51,1,3359.407,1,51,1.092467184238291,1.170500554541026
52,1,3815.203,-1,52,0.8583670733300858,1.170500554541026
53,1,4747.633,-1,53,-1.5216507209033339,-1.170500554541026
54,1,3013.624000000001,-1,54,0.2341001109082052,0.0
55,1,3695.847,-1,55,-0.2341001109082052,0.0
56,1,1818.684,-1,56,0.5462335921191455,0.0
57,1,3040.837,-1,57,1.170500554541026,0.8193503881787182
58,1,3156.807,-1,58,-0.5462335921191455,-1.170500554541026
59,1,5926.643,1,59,-1.170500554541026,-0.27311679605957273
60,1,4156.099,1,60,0.19508342575683765,0.0
61,1,2333.893,1,61,1.170500554541026,1.3655839802978638
62,1,2362.993,-1,62,-0.3511501663623078,-1.170500554541026
63,1,1705.088,-1,63,0.0,-0.5462335921191455
64,1,1720.385,1,64,-1.170500554541026,-0.7023003327246156
65,1,1728.2179999999994,-1,65,-0.5462335921191455,0.0
66,1,2498.348,1,66,-1.170500554541026,-0.5462335921191455
67,1,3240.459000000001,1,67,0.0,0.5462335921191455
68,1,2765.97,1,68,1.170500554541026,1.0144338139355558
69,1,2998.353,1,69,-0.7023003327246156,-1.170500554541026
70,1,2079.715,-1,70,1.170500554541026,1.092467184238291
71,1,1666.1029999999994,1,71,-1.170500554541026,-0.3511501663623078
72,1,2426.928,-1,72,-0.27311679605957273,-1.170500554541026
73,1,3263.2990000000004,1,73,-1.170500554541026,-0.9754171287841883
74,1,1723.836,-1,74,0.0,-0.6242669624218805
75,1,1368.6429999999998,-1,75,0.0,-0.2341001109082052
76,1,1990.443,-1,76,1.170500554541026,0.9754171287841883
77,1,2997.126,-1,77,0.0,0.2341001109082052
78,1,1573.53,-1,78,1.3655839802978638,1.170500554541026
79,1,2306.153,-1,79,0.4291835366650429,0.0
80,1,2773.406,-1,80,1.170500554541026,1.0534504990869233
81,1,2122.486,1,81,1.170500554541026,1.5606674060547012
82,1,1541.2910000000006,-1,82,0.0,-0.31213348121094026
83,1,1792.184,-1,83,-1.3655839802978638,-1.170500554541026
84,1,1719.1229999999994,-1,84,-0.8973837584814532,-1.170500554541026
85,1,5485.479,1,85,-0.3901668515136753,0.0
86,1,4941.353,1,86,0.0,0.31213348121094026
87,1,1580.206,1,87,-0.5072169069677779,0.0
88,1,3148.962,-1,88,0.0,-0.3901668515136753
89,1,2129.2,1,89,-0.31213348121094026,0.0
90,1,1528.68,-1,90,0.0,0.3901668515136753
91,1,1442.214,-1,91,0.0,-0.5072169069677779
92,1,1628.017,-1,92,-0.07803337030273506,0.0
93,1,2346.231,1,93,1.170500554541026,1.5216507209033339
94,1,3316.3390000000004,-1,94,-0.6242669624218805,-1.170500554541026
95,1,3031.183,-1,95,0.0,-0.19508342575683765
96,1,2266.764,-1,96,0.7803337030273506,1.170500554541026
97,1,1321.42,-1,97,1.5216507209033339,1.170500554541026
98,1,2265.431,1,98,-1.170500554541026,-0.6242669624218805
99,1,4164.13,-1,99,0.31213348121094026,0.0
100,1,2726.3920000000007,-1,100,1.2095172396923934,1.170500554541026
101,1,2464.949,1,101,1.4436173506005987,1.170500554541026
102,1,1844.314,1,102,1.1314838693896585,1.170500554541026
103,1,4667.099,1,103,-1.248533924843761,-1.170500554541026
104,1,3192.227000000001,-1,104,1.5606674060547012,1.170500554541026
105,1,2169.18,-1,105,1.170500554541026,1.1314838693896585
106,1,2349.446,1,106,-0.19508342575683765,0.0
107,1,3171.303,-1,107,1.170500554541026,1.2095172396923934
108,1,2993.885,-1,108,1.170500554541026,1.4436173506005987
109,1,2046.197,-1,109,0.0,-0.07803337030273506
110,1,2000.771,-1,110,1.170500554541026,0.7803337030273506
111,1,3949.34,1,111,1.0534504990869233,1.170500554541026
112,1,2302.897,1,112,-1.6387007763574364,-1.170500554541026
113,1,1967.521,-1,113,0.5072169069677779,0.0
114,1,5436.005,-1,114,0.0,0.5072169069677779
115,1,1555.042,-1,115,0.3901668515136753,0.0
116,1,1991.723,-1,116,-1.170500554541026,-1.6387007763574364
117,1,3401.665,-1,117,-1.170500554541026,-1.3655839802978638
118,1,4202.816,1,118,-1.170500554541026,-1.248533924843761
119,1,2110.906,1,119,-1.170500554541026,-0.8973837584814532
120,2,4393.264,-1,0,-1.170500554541026,-1.9898509427197442
121,2,9018.968,1,1,1.2875506099951286,1.170500554541026
122,2,2271.286,1,2,1.170500554541026,1.4046006654492311
123,2,13824.456,-1,3,0.8973837584814532,1.170500554541026
124,2,2308.854,-1,4,1.4826340357519663,1.170500554541026
125,2,6735.222,-1,5,-1.092467184238291,-1.170500554541026
126,2,4220.918,-1,6,0.07803337030273506,0.0
127,2,4542.710999999998,1,7,-1.170500554541026,-0.4682002218164104
128,2,10213.207,1,8,1.170500554541026,1.248533924843761
129,2,12842.266,-1,9,-1.170500554541026,-0.8193503881787182
130,2,5697.236,-1,10,1.3265672951464962,1.170500554541026
131,2,9507.452,1,11,0.0,-0.1170500554541026
132,2,2202.626,-1,12,1.170500554541026,0.9364004436328208
133,2,10523.383,-1,13,1.170500554541026,1.2875506099951286
134,2,5659.319,-1,14,-1.170500554541026,-1.7167341466601715
135,2,11711.122,-1,15,-0.4291835366650429,0.0
136,2,4957.49,-1,16,0.6242669624218805,0.0
137,2,4295.431,1,17,-0.1170500554541026,0.0
138,2,3120.003,-1,18,-0.8193503881787182,-1.170500554541026
139,2,6435.686,1,19,0.9364004436328208,1.170500554541026
140,2,4288.92,1,20,1.170500554541026,1.4826340357519663
141,2,9699.076,-1,21,-1.170500554541026,-1.4436173506005987
142,2,12993.588,-1,22,0.1170500554541026,0.0
143,2,6368.911,-1,23,0.0,-0.4291835366650429
144,2,5931.459,-1,24,1.4046006654492311,1.170500554541026
145,2,13766.499,-1,25,1.170500554541026,0.8973837584814532
146,2,3602.769,1,26,1.170500554541026,1.3265672951464962
147,2,8029.58,1,27,-1.170500554541026,-1.092467184238291
148,2,9357.582,1,28,-2.0678843130224793,-1.170500554541026
149,2,14391.407,1,29,-1.9898509427197442,-1.170500554541026
150,2,13627.4,1,30,-1.7947675169629065,-1.170500554541026
151,2,4957.208,-1,31,-1.170500554541026,-2.0678843130224793
152,2,5640.168000000002,-1,32,-1.170500554541026,-1.7947675169629065
153,2,8963.665,1,33,1.248533924843761,1.170500554541026
154,2,12768.284,-1,34,0.0,0.1170500554541026
155,2,13402.299,1,35,-1.4436173506005987,-1.170500554541026
156,2,8565.537,-1,36,0.0,0.6242669624218805
157,2,8977.981,1,37,0.0,0.07803337030273506
158,2,19471.289,1,38,-1.7167341466601715,-1.170500554541026
159,2,3362.804,-1,39,-0.4682002218164104,-1.170500554541026
160,2,10371.722,1,40,-1.8728008872656416,-1.170500554541026
161,2,6100.871,-1,41,1.170500554541026,0.8583670733300858
162,2,10341.341,1,42,1.0144338139355558,1.170500554541026
163,2,6921.445,1,43,0.0,0.4291835366650429
164,2,3024.208,-1,44,-0.9754171287841883,-1.170500554541026
165,2,8126.898,1,45,0.9754171287841883,1.170500554541026
166,2,6204.749,-1,46,-0.6242669624218805,0.0
167,2,4774.057,-1,47,0.0,0.19508342575683765
168,2,4717.593,-1,48,-1.170500554541026,-1.8728008872656416
169,2,12861.619,-1,49,0.8193503881787182,1.170500554541026
170,2,8381.153,-1,50,-1.170500554541026,-1.5216507209033339
171,2,7201.565,1,51,1.092467184238291,1.170500554541026
172,2,6935.852,1,52,0.8583670733300858,1.170500554541026
173,2,8155.781999999997,1,53,-1.5216507209033339,-1.170500554541026
174,2,11231.186000000005,-1,54,0.2341001109082052,0.0
175,2,13460.855,1,55,-0.2341001109082052,0.0
176,2,5129.368,-1,56,0.5462335921191455,0.0
177,2,3361.537000000001,-1,57,1.170500554541026,0.8193503881787182
178,2,13908.459,-1,58,-0.5462335921191455,-1.170500554541026
179,2,6783.104,1,59,-1.170500554541026,-0.27311679605957273
180,2,9203.481,-1,60,0.19508342575683765,0.0
181,2,5052.915,1,61,1.170500554541026,1.3655839802978638
182,2,6342.498000000001,-1,62,-0.3511501663623078,-1.170500554541026
183,2,3910.52,-1,63,0.0,-0.5462335921191455
184,2,4594.054,1,64,-1.170500554541026,-0.7023003327246156
185,2,15601.451,-1,65,-0.5462335921191455,0.0
186,2,7309.275,1,66,-1.170500554541026,-0.5462335921191455
187,2,5190.82,1,67,0.0,0.5462335921191455
188,2,20879.898,-1,68,1.170500554541026,1.0144338139355558
189,2,4408.831,-1,69,-0.7023003327246156,-1.170500554541026
190,2,13117.59,-1,70,1.170500554541026,1.092467184238291
191,2,5613.9659999999985,1,71,-1.170500554541026,-0.3511501663623078
192,2,5082.736,-1,72,-0.27311679605957273,-1.170500554541026
193,2,8499.643,-1,73,-1.170500554541026,-0.9754171287841883
194,2,7979.472,-1,74,0.0,-0.6242669624218805
195,2,15395.867,1,75,0.0,-0.2341001109082052
196,2,8201.57,-1,76,1.170500554541026,0.9754171287841883
197,2,6820.168000000002,1,77,0.0,0.2341001109082052
198,2,8076.828,-1,78,1.3655839802978638,1.170500554541026
199,2,5123.042,-1,79,0.4291835366650429,0.0
200,2,7575.096,-1,80,1.170500554541026,1.0534504990869233
201,2,4658.442,1,81,1.170500554541026,1.5606674060547012
202,2,7008.028,-1,82,0.0,-0.31213348121094026
203,2,13829.928,-1,83,-1.3655839802978638,-1.170500554541026
204,2,2747.496,-1,84,-0.8973837584814532,-1.170500554541026
205,2,12428.383,1,85,-0.3901668515136753,0.0
206,2,4775.54,-1,86,0.0,0.31213348121094026
207,2,6153.953,1,87,-0.5072169069677779,0.0
208,2,5461.167,-1,88,0.0,-0.3901668515136753
209,2,7037.482,1,89,-0.31213348121094026,0.0
210,2,15416.275,1,90,0.0,0.3901668515136753
211,2,5270.916,-1,91,0.0,-0.5072169069677779
212,2,5931.903,1,92,-0.07803337030273506,0.0
213,2,4572.768,1,93,1.170500554541026,1.5216507209033339
214,2,5824.12,-1,94,-0.6242669624218805,-1.170500554541026
215,2,8615.398000000001,1,95,0.0,-0.19508342575683765
216,2,8031.564,1,96,0.7803337030273506,1.170500554541026
217,2,2722.327,-1,97,1.5216507209033339,1.170500554541026
218,2,14101.24,1,98,-1.170500554541026,-0.6242669624218805
219,2,8237.123,-1,99,0.31213348121094026,0.0
220,2,5628.714,-1,100,1.2095172396923934,1.170500554541026
221,2,7812.105,-1,101,1.4436173506005987,1.170500554541026
222,2,13191.96,-1,102,1.1314838693896585,1.170500554541026
223,2,7394.705,-1,103,-1.248533924843761,-1.170500554541026
224,2,13209.633,-1,104,1.5606674060547012,1.170500554541026
225,2,9956.088,-1,105,1.170500554541026,1.1314838693896585
226,2,11160.33,-1,106,-0.19508342575683765,0.0
227,2,10567.69,1,107,1.170500554541026,1.2095172396923934
228,2,3856.248,1,108,1.170500554541026,1.4436173506005987
229,2,9273.443,-1,109,0.0,-0.07803337030273506
230,2,2950.943,-1,110,1.170500554541026,0.7803337030273506
231,2,13342.428,-1,111,1.0534504990869233,1.170500554541026
232,2,7723.314,1,112,-1.6387007763574364,-1.170500554541026
233,2,4339.511,-1,113,0.5072169069677779,0.0
234,2,5191.56,1,114,0.0,0.5072169069677779
235,2,4657.154,-1,115,0.3901668515136753,0.0
236,2,5824.51,-1,116,-1.170500554541026,-1.6387007763574364
237,2,18900.494,-1,117,-1.170500554541026,-1.3655839802978638
238,2,4334.927,-1,118,-1.170500554541026,-1.248533924843761
239,2,8621.08,-1,119,-1.170500554541026,-0.8973837584814532
240,3,4612.844,1,0,-1.170500554541026,-1.9898509427197442
241,3,3098.9640000000004,-1,1,1.2875506099951286,1.170500554541026
242,3,3949.32,-1,2,1.170500554541026,1.4046006654492311
243,3,3992.314,1,3,0.8973837584814532,1.170500554541026
244,3,3063.877,-1,4,1.4826340357519663,1.170500554541026
245,3,6334.299,1,5,-1.092467184238291,-1.170500554541026
246,3,3503.517000000001,-1,6,0.07803337030273506,0.0
247,3,5757.464,1,7,-1.170500554541026,-0.4682002218164104
248,3,4202.759,1,8,1.170500554541026,1.248533924843761
249,3,3362.251,1,9,-1.170500554541026,-0.8193503881787182
250,3,4765.607,-1,10,1.3265672951464962,1.170500554541026
251,3,4393.51,-1,11,0.0,-0.1170500554541026
252,3,2648.53,-1,12,1.170500554541026,0.9364004436328208
253,3,3205.018,1,13,1.170500554541026,1.2875506099951286
254,3,2249.129,-1,14,-1.170500554541026,-1.7167341466601715
255,3,3368.787000000001,1,15,-0.4291835366650429,0.0
256,3,1595.809,-1,16,0.6242669624218805,0.0
257,3,2598.623,-1,17,-0.1170500554541026,0.0
258,3,3256.513,1,18,-0.8193503881787182,-1.170500554541026
259,3,2950.898,1,19,0.9364004436328208,1.170500554541026
260,3,2088.328,-1,20,1.170500554541026,1.4826340357519663
261,3,2892.78,-1,21,-1.170500554541026,-1.4436173506005987
262,3,3153.39,1,22,0.1170500554541026,0.0
263,3,3489.703,-1,23,0.0,-0.4291835366650429
264,3,1597.213,-1,24,1.4046006654492311,1.170500554541026
265,3,2715.458,-1,25,1.170500554541026,0.8973837584814532
266,3,3544.648,1,26,1.170500554541026,1.3265672951464962
267,3,5488.943,1,27,-1.170500554541026,-1.092467184238291
268,3,2793.11,1,28,-2.0678843130224793,-1.170500554541026
269,3,3888.358,1,29,-1.9898509427197442,-1.170500554541026
270,3,3968.847,1,30,-1.7947675169629065,-1.170500554541026
271,3,5034.733,-1,31,-1.170500554541026,-2.0678843130224793
272,3,2112.499,-1,32,-1.170500554541026,-1.7947675169629065
273,3,2296.6620000000007,-1,33,1.248533924843761,1.170500554541026
274,3,3646.655,-1,34,0.0,0.1170500554541026
275,3,4058.004,1,35,-1.4436173506005987,-1.170500554541026
276,3,4104.806,1,36,0.0,0.6242669624218805
277,3,2157.565,-1,37,0.0,0.07803337030273506
278,3,5902.977,1,38,-1.7167341466601715,-1.170500554541026
279,3,3965.283,-1,39,-0.4682002218164104,-1.170500554541026
280,3,2874.212,1,40,-1.8728008872656416,-1.170500554541026
281,3,1905.035,-1,41,1.170500554541026,0.8583670733300858
282,3,3598.064000000001,-1,42,1.0144338139355558,1.170500554541026
283,3,4363.497,1,43,0.0,0.4291835366650429
284,3,3112.865,-1,44,-0.9754171287841883,-1.170500554541026
285,3,1884.503,-1,45,0.9754171287841883,1.170500554541026
286,3,1983.844,-1,46,-0.6242669624218805,0.0
287,3,3481.898,1,47,0.0,0.19508342575683765
288,3,1740.578,-1,48,-1.170500554541026,-1.8728008872656416
289,3,2775.34,1,49,0.8193503881787182,1.170500554541026
290,3,3192.21,-1,50,-1.170500554541026,-1.5216507209033339
291,3,2788.262,-1,51,1.092467184238291,1.170500554541026
292,3,2021.154,-1,52,0.8583670733300858,1.170500554541026
293,3,2046.904,-1,53,-1.5216507209033339,-1.170500554541026
294,3,2458.908,-1,54,0.2341001109082052,0.0
295,3,11284.041,-1,55,-0.2341001109082052,0.0
296,3,2205.452,-1,56,0.5462335921191455,0.0
297,3,2938.959000000001,1,57,1.170500554541026,0.8193503881787182
298,3,2075.831,-1,58,-0.5462335921191455,-1.170500554541026
299,3,6006.701,1,59,-1.170500554541026,-0.27311679605957273
300,3,5185.448,-1,60,0.19508342575683765,0.0
301,3,2171.165,-1,61,1.170500554541026,1.3655839802978638
302,3,2231.588,-1,62,-0.3511501663623078,-1.170500554541026
303,3,6749.729,-1,63,0.0,-0.5462335921191455
304,3,1702.985,1,64,-1.170500554541026,-0.7023003327246156
305,3,4327.1,1,65,-0.5462335921191455,0.0
306,3,2781.398,1,66,-1.170500554541026,-0.5462335921191455
307,3,2153.141,-1,67,0.0,0.5462335921191455
308,3,5509.326,-1,68,1.170500554541026,1.0144338139355558
309,3,3790.565,-1,69,-0.7023003327246156,-1.170500554541026
310,3,1935.545,-1,70,1.170500554541026,1.092467184238291
311,3,5071.439,1,71,-1.170500554541026,-0.3511501663623078
312,3,1970.037,-1,72,-0.27311679605957273,-1.170500554541026
313,3,1915.188,-1,73,-1.170500554541026,-0.9754171287841883
314,3,1806.863,-1,74,0.0,-0.6242669624218805
315,3,3215.543,-1,75,0.0,-0.2341001109082052
316,3,3040.316,-1,76,1.170500554541026,0.9754171287841883
317,3,2795.6940000000004,1,77,0.0,0.2341001109082052
318,3,2434.871,-1,78,1.3655839802978638,1.170500554541026
319,3,2171.063,-1,79,0.4291835366650429,0.0
320,3,6490.153,-1,80,1.170500554541026,1.0534504990869233
321,3,2569.653,1,81,1.170500554541026,1.5606674060547012
322,3,1734.384,1,82,0.0,-0.31213348121094026
323,3,1816.44,-1,83,-1.3655839802978638,-1.170500554541026
324,3,3418.283,1,84,-0.8973837584814532,-1.170500554541026
325,3,3388.941,1,85,-0.3901668515136753,0.0
326,3,3212.035,1,86,0.0,0.31213348121094026
327,3,4191.488,1,87,-0.5072169069677779,0.0
328,3,2193.673,-1,88,0.0,-0.3901668515136753
329,3,2866.639,1,89,-0.31213348121094026,0.0
330,3,4461.154,1,90,0.0,0.3901668515136753
331,3,1790.7120000000002,-1,91,0.0,-0.5072169069677779
332,3,3086.176,1,92,-0.07803337030273506,0.0
333,3,2421.588,1,93,1.170500554541026,1.5216507209033339
334,3,5495.088000000002,-1,94,-0.6242669624218805,-1.170500554541026
335,3,7992.571,1,95,0.0,-0.19508342575683765
336,3,1895.259,-1,96,0.7803337030273506,1.170500554541026
337,3,1717.5279999999998,-1,97,1.5216507209033339,1.170500554541026
338,3,5673.799,-1,98,-1.170500554541026,-0.6242669624218805
339,3,1735.755,-1,99,0.31213348121094026,0.0
340,3,1521.761,-1,100,1.2095172396923934,1.170500554541026
341,3,1839.842,-1,101,1.4436173506005987,1.170500554541026
342,3,2040.446,-1,102,1.1314838693896585,1.170500554541026
343,3,3775.151,-1,103,-1.248533924843761,-1.170500554541026
344,3,4915.3420000000015,1,104,1.5606674060547012,1.170500554541026
345,3,1945.35,-1,105,1.170500554541026,1.1314838693896585
346,3,2987.0490000000004,1,106,-0.19508342575683765,0.0
347,3,2836.683,1,107,1.170500554541026,1.2095172396923934
348,3,3238.171,-1,108,1.170500554541026,1.4436173506005987
349,3,3324.511,-1,109,0.0,-0.07803337030273506
350,3,1673.779,-1,110,1.170500554541026,0.7803337030273506
351,3,4260.273,1,111,1.0534504990869233,1.170500554541026
352,3,3245.341,1,112,-1.6387007763574364,-1.170500554541026
353,3,2464.32,-1,113,0.5072169069677779,0.0
354,3,3971.055,1,114,0.0,0.5072169069677779
355,3,4124.874,-1,115,0.3901668515136753,0.0
356,3,3063.151,-1,116,-1.170500554541026,-1.6387007763574364
357,3,2784.731,-1,117,-1.170500554541026,-1.3655839802978638
358,3,2274.323,-1,118,-1.170500554541026,-1.248533924843761
359,3,3210.26,1,119,-1.170500554541026,-0.8973837584814532
360,4,14824.897,-1,0,-1.170500554541026,-1.9898509427197442
361,4,2083.157,1,1,1.2875506099951286,1.170500554541026
362,4,9357.174,-1,2,1.170500554541026,1.4046006654492311
363,4,2825.048,-1,3,0.8973837584814532,1.170500554541026
364,4,1900.572,-1,4,1.4826340357519663,1.170500554541026
365,4,4876.995,-1,5,-1.092467184238291,-1.170500554541026
366,4,1821.439,-1,6,0.07803337030273506,0.0
367,4,7493.308000000001,1,7,-1.170500554541026,-0.4682002218164104
368,4,4593.317,-1,8,1.170500554541026,1.248533924843761
369,4,2388.264,-1,9,-1.170500554541026,-0.8193503881787182
370,4,4057.351,-1,10,1.3265672951464962,1.170500554541026
371,4,3000.593,-1,11,0.0,-0.1170500554541026
372,4,3201.176,-1,12,1.170500554541026,0.9364004436328208
373,4,8467.339,-1,13,1.170500554541026,1.2875506099951286
374,4,15422.37,-1,14,-1.170500554541026,-1.7167341466601715
375,4,22416.61,-1,15,-0.4291835366650429,0.0
376,4,2357.467,-1,16,0.6242669624218805,0.0
377,4,19852.526,1,17,-0.1170500554541026,0.0
378,4,14929.605,1,18,-0.8193503881787182,-1.170500554541026
379,4,6802.71,1,19,0.9364004436328208,1.170500554541026
380,4,5623.276,1,20,1.170500554541026,1.4826340357519663
381,4,8088.222,-1,21,-1.170500554541026,-1.4436173506005987
382,4,8348.753,-1,22,0.1170500554541026,0.0
383,4,2068.719,-1,23,0.0,-0.4291835366650429
384,4,2864.606,-1,24,1.4046006654492311,1.170500554541026
385,4,1555.129,-1,25,1.170500554541026,0.8973837584814532
386,4,2010.556,-1,26,1.170500554541026,1.3265672951464962
387,4,25299.521,-1,27,-1.170500554541026,-1.092467184238291
388,4,1996.359,-1,28,-2.0678843130224793,-1.170500554541026
389,4,15235.493,1,29,-1.9898509427197442,-1.170500554541026
390,4,9458.254,1,30,-1.7947675169629065,-1.170500554541026
391,4,1876.74,-1,31,-1.170500554541026,-2.0678843130224793
392,4,6732.502,-1,32,-1.170500554541026,-1.7947675169629065
393,4,1564.586,-1,33,1.248533924843761,1.170500554541026
394,4,10629.362,-1,34,0.0,0.1170500554541026
395,4,9460.517,1,35,-1.4436173506005987,-1.170500554541026
396,4,7210.473000000001,1,36,0.0,0.6242669624218805
397,4,6251.0480000000025,-1,37,0.0,0.07803337030273506
398,4,6443.4230000000025,-1,38,-1.7167341466601715,-1.170500554541026
399,4,2842.802,-1,39,-0.4682002218164104,-1.170500554541026
400,4,5514.536,1,40,-1.8728008872656416,-1.170500554541026
401,4,1932.558,-1,41,1.170500554541026,0.8583670733300858
402,4,9801.449,-1,42,1.0144338139355558,1.170500554541026
403,4,5940.869000000002,1,43,0.0,0.4291835366650429
404,4,3591.975,-1,44,-0.9754171287841883,-1.170500554541026
405,4,2463.779,-1,45,0.9754171287841883,1.170500554541026
406,4,4914.518,-1,46,-0.6242669624218805,0.0
407,4,3861.1540000000014,-1,47,0.0,0.19508342575683765
408,4,1810.596,-1,48,-1.170500554541026,-1.8728008872656416
409,4,6114.863,1,49,0.8193503881787182,1.170500554541026
410,4,2444.855,-1,50,-1.170500554541026,-1.5216507209033339
411,4,3256.276,-1,51,1.092467184238291,1.170500554541026
412,4,15007.925,-1,52,0.8583670733300858,1.170500554541026
413,4,14697.957,1,53,-1.5216507209033339,-1.170500554541026
414,4,1860.584,-1,54,0.2341001109082052,0.0
415,4,5034.29,-1,55,-0.2341001109082052,0.0
416,4,7942.371,-1,56,0.5462335921191455,0.0
417,4,1541.675,-1,57,1.170500554541026,0.8193503881787182
418,4,1639.813,-1,58,-0.5462335921191455,-1.170500554541026
419,4,3309.907,1,59,-1.170500554541026,-0.27311679605957273
420,4,1652.721,-1,60,0.19508342575683765,0.0
421,4,2686.6540000000005,-1,61,1.170500554541026,1.3655839802978638
422,4,1650.025,-1,62,-0.3511501663623078,-1.170500554541026
423,4,2717.362,-1,63,0.0,-0.5462335921191455
424,4,1869.81,-1,64,-1.170500554541026,-0.7023003327246156
425,4,8438.741,1,65,-0.5462335921191455,0.0
426,4,1844.599,-1,66,-1.170500554541026,-0.5462335921191455
427,4,3257.386,-1,67,0.0,0.5462335921191455
428,4,1544.7620000000006,-1,68,1.170500554541026,1.0144338139355558
429,4,1977.232,-1,69,-0.7023003327246156,-1.170500554541026
430,4,5245.960999999998,-1,70,1.170500554541026,1.092467184238291
431,4,10697.016,1,71,-1.170500554541026,-0.3511501663623078
432,4,5721.714,-1,72,-0.27311679605957273,-1.170500554541026
433,4,7035.153,-1,73,-1.170500554541026,-0.9754171287841883
434,4,1696.698,-1,74,0.0,-0.6242669624218805
435,4,5437.186,-1,75,0.0,-0.2341001109082052
436,4,1864.389,-1,76,1.170500554541026,0.9754171287841883
437,4,6701.093000000003,-1,77,0.0,0.2341001109082052
438,4,1591.685,-1,78,1.3655839802978638,1.170500554541026
439,4,3241.106,-1,79,0.4291835366650429,0.0
440,4,7326.800999999998,-1,80,1.170500554541026,1.0534504990869233
441,4,10370.944,-1,81,1.170500554541026,1.5606674060547012
442,4,6994.066,-1,82,0.0,-0.31213348121094026
443,4,20801.538,-1,83,-1.3655839802978638,-1.170500554541026
444,4,3869.451,-1,84,-0.8973837584814532,-1.170500554541026
445,4,10888.107,-1,85,-0.3901668515136753,0.0
446,4,15326.428,1,86,0.0,0.31213348121094026
447,4,3698.599,1,87,-0.5072169069677779,0.0
448,4,1644.716,-1,88,0.0,-0.3901668515136753
449,4,5217.47,1,89,-0.31213348121094026,0.0
450,4,7844.831999999998,1,90,0.0,0.3901668515136753
451,4,1715.8470000000002,-1,91,0.0,-0.5072169069677779
452,4,2732.0370000000007,-1,92,-0.07803337030273506,0.0
453,4,19264.999,-1,93,1.170500554541026,1.5216507209033339
454,4,2416.989,-1,94,-0.6242669624218805,-1.170500554541026
455,4,17362.41,-1,95,0.0,-0.19508342575683765
456,4,8393.032,1,96,0.7803337030273506,1.170500554541026
457,4,4098.332,-1,97,1.5216507209033339,1.170500554541026
458,4,10515.086,-1,98,-1.170500554541026,-0.6242669624218805
459,4,31663.561,-1,99,0.31213348121094026,0.0
460,4,13825.959,-1,100,1.2095172396923934,1.170500554541026
461,4,3532.394,-1,101,1.4436173506005987,1.170500554541026
462,4,6932.071999999999,-1,102,1.1314838693896585,1.170500554541026
463,4,4322.377,-1,103,-1.248533924843761,-1.170500554541026
464,4,1712.77,-1,104,1.5606674060547012,1.170500554541026
465,4,8741.851999999999,-1,105,1.170500554541026,1.1314838693896585
466,4,18617.121,-1,106,-0.19508342575683765,0.0
467,4,7029.46,-1,107,1.170500554541026,1.2095172396923934
468,4,17355.536,-1,108,1.170500554541026,1.4436173506005987
469,4,1770.037,-1,109,0.0,-0.07803337030273506
470,4,5798.199000000001,-1,110,1.170500554541026,0.7803337030273506
471,4,2808.845,-1,111,1.0534504990869233,1.170500554541026
472,4,8212.237,1,112,-1.6387007763574364,-1.170500554541026
473,4,2293.854,-1,113,0.5072169069677779,0.0
474,4,8415.61,1,114,0.0,0.5072169069677779
475,4,2697.0170000000007,-1,115,0.3901668515136753,0.0
476,4,2157.263,-1,116,-1.170500554541026,-1.6387007763574364
477,4,2450.887,-1,117,-1.170500554541026,-1.3655839802978638
478,4,3564.241,-1,118,-1.170500554541026,-1.248533924843761
479,4,2070.507,-1,119,-1.170500554541026,-0.8973837584814532
480,5,7222.438,-1,0,-1.170500554541026,-1.9898509427197442
481,5,4765.239000000001,-1,1,1.2875506099951286,1.170500554541026
482,5,3295.646,1,2,1.170500554541026,1.4046006654492311
483,5,2944.05,1,3,0.8973837584814532,1.170500554541026
484,5,4044.965,-1,4,1.4826340357519663,1.170500554541026
485,5,5083.667,1,5,-1.092467184238291,-1.170500554541026
486,5,2478.845,-1,6,0.07803337030273506,0.0
487,5,6831.774,-1,7,-1.170500554541026,-0.4682002218164104
488,5,7215.97,-1,8,1.170500554541026,1.248533924843761
489,5,7304.288,-1,9,-1.170500554541026,-0.8193503881787182
490,5,7185.6,1,10,1.3265672951464962,1.170500554541026
491,5,9791.269,1,11,0.0,-0.1170500554541026
492,5,5181.088,-1,12,1.170500554541026,0.9364004436328208
493,5,6220.18,1,13,1.170500554541026,1.2875506099951286
494,5,4647.5920000000015,-1,14,-1.170500554541026,-1.7167341466601715
495,5,8988.713,-1,15,-0.4291835366650429,0.0
496,5,3464.902,-1,16,0.6242669624218805,0.0
497,5,10276.159,-1,17,-0.1170500554541026,0.0
498,5,5499.503000000002,-1,18,-0.8193503881787182,-1.170500554541026
499,5,6396.53,1,19,0.9364004436328208,1.170500554541026
500,5,3607.382,-1,20,1.170500554541026,1.4826340357519663
501,5,4718.766,-1,21,-1.170500554541026,-1.4436173506005987
502,5,6240.307,-1,22,0.1170500554541026,0.0
503,5,3710.405,-1,23,0.0,-0.4291835366650429
504,5,4812.778,-1,24,1.4046006654492311,1.170500554541026
505,5,3689.549,-1,25,1.170500554541026,0.8973837584814532
506,5,7967.58,-1,26,1.170500554541026,1.3265672951464962
507,5,6837.9659999999985,1,27,-1.170500554541026,-1.092467184238291
508,5,3779.256,1,28,-2.0678843130224793,-1.170500554541026
509,5,3215.512,1,29,-1.9898509427197442,-1.170500554541026
510,5,3665.191,1,30,-1.7947675169629065,-1.170500554541026
511,5,6854.611999999999,-1,31,-1.170500554541026,-2.0678843130224793
512,5,4058.527,-1,32,-1.170500554541026,-1.7947675169629065
513,5,9497.24,-1,33,1.248533924843761,1.170500554541026
514,5,5471.917,-1,34,0.0,0.1170500554541026
515,5,2581.39,1,35,-1.4436173506005987,-1.170500554541026
516,5,2750.297,1,36,0.0,0.6242669624218805
517,5,6351.305,-1,37,0.0,0.07803337030273506
518,5,1710.409,1,38,-1.7167341466601715,-1.170500554541026
519,5,5981.896,-1,39,-0.4682002218164104,-1.170500554541026
520,5,4242.301,1,40,-1.8728008872656416,-1.170500554541026
521,5,6513.653,-1,41,1.170500554541026,0.8583670733300858
522,5,4276.049,1,42,1.0144338139355558,1.170500554541026
523,5,4416.106,1,43,0.0,0.4291835366650429
524,5,3549.203,-1,44,-0.9754171287841883,-1.170500554541026
525,5,5117.803,-1,45,0.9754171287841883,1.170500554541026
526,5,10385.769,-1,46,-0.6242669624218805,0.0
527,5,5970.382,1,47,0.0,0.19508342575683765
528,5,4631.856,-1,48,-1.170500554541026,-1.8728008872656416
529,5,3194.466,1,49,0.8193503881787182,1.170500554541026
530,5,3151.831,-1,50,-1.170500554541026,-1.5216507209033339
531,5,5548.877,-1,51,1.092467184238291,1.170500554541026
532,5,5032.219,-1,52,0.8583670733300858,1.170500554541026
533,5,11801.06,-1,53,-1.5216507209033339,-1.170500554541026
534,5,2841.384,-1,54,0.2341001109082052,0.0
535,5,6339.8669999999975,1,55,-0.2341001109082052,0.0
536,5,3893.338,-1,56,0.5462335921191455,0.0
537,5,1974.536,-1,57,1.170500554541026,0.8193503881787182
538,5,1955.173,-1,58,-0.5462335921191455,-1.170500554541026
539,5,4986.021,1,59,-1.170500554541026,-0.27311679605957273
540,5,11520.602,1,60,0.19508342575683765,0.0
541,5,4560.314,1,61,1.170500554541026,1.3655839802978638
542,5,3483.968,-1,62,-0.3511501663623078,-1.170500554541026
543,5,1815.661,-1,63,0.0,-0.5462335921191455
544,5,2644.911,1,64,-1.170500554541026,-0.7023003327246156
545,5,5958.765,1,65,-0.5462335921191455,0.0
546,5,3971.287,-1,66,-1.170500554541026,-0.5462335921191455
547,5,4262.166,-1,67,0.0,0.5462335921191455
548,5,4680.479,1,68,1.170500554541026,1.0144338139355558
549,5,2555.67,1,69,-0.7023003327246156,-1.170500554541026
550,5,4514.502,1,70,1.170500554541026,1.092467184238291
551,5,4200.33,-1,71,-1.170500554541026,-0.3511501663623078
552,5,3215.42,1,72,-0.27311679605957273,-1.170500554541026
553,5,5822.605,-1,73,-1.170500554541026,-0.9754171287841883
554,5,7330.5480000000025,1,74,0.0,-0.6242669624218805
555,5,4100.559,1,75,0.0,-0.2341001109082052
556,5,4450.724,1,76,1.170500554541026,0.9754171287841883
557,5,7381.719,1,77,0.0,0.2341001109082052
558,5,4154.848,1,78,1.3655839802978638,1.170500554541026
559,5,7643.315,1,79,0.4291835366650429,0.0
560,5,4333.5,-1,80,1.170500554541026,1.0534504990869233
561,5,7113.265,-1,81,1.170500554541026,1.5606674060547012
562,5,2821.7990000000004,-1,82,0.0,-0.31213348121094026
563,5,6692.084,-1,83,-1.3655839802978638,-1.170500554541026
564,5,5363.299,1,84,-0.8973837584814532,-1.170500554541026
565,5,7395.46,1,85,-0.3901668515136753,0.0
566,5,7097.294,-1,86,0.0,0.31213348121094026
567,5,4372.559,1,87,-0.5072169069677779,0.0
568,5,5583.156999999997,-1,88,0.0,-0.3901668515136753
569,5,4584.432,1,89,-0.31213348121094026,0.0
570,5,5412.8780000000015,-1,90,0.0,0.3901668515136753
571,5,2244.948,-1,91,0.0,-0.5072169069677779
572,5,5185.66,1,92,-0.07803337030273506,0.0
573,5,2717.711,1,93,1.170500554541026,1.5216507209033339
574,5,7714.071,-1,94,-0.6242669624218805,-1.170500554541026
575,5,8222.693000000001,-1,95,0.0,-0.19508342575683765
576,5,7420.130999999998,-1,96,0.7803337030273506,1.170500554541026
577,5,10990.016,-1,97,1.5216507209033339,1.170500554541026
578,5,4468.544,1,98,-1.170500554541026,-0.6242669624218805
579,5,2355.682,1,99,0.31213348121094026,0.0
580,5,4612.005,1,100,1.2095172396923934,1.170500554541026
581,5,9865.907,-1,101,1.4436173506005987,1.170500554541026
582,5,3959.668,1,102,1.1314838693896585,1.170500554541026
583,5,11031.357,1,103,-1.248533924843761,-1.170500554541026
584,5,2095.772,-1,104,1.5606674060547012,1.170500554541026
585,5,3203.825,-1,105,1.170500554541026,1.1314838693896585
586,5,4205.344,1,106,-0.19508342575683765,0.0
587,5,5260.121,-1,107,1.170500554541026,1.2095172396923934
588,5,3668.326,-1,108,1.170500554541026,1.4436173506005987
589,5,5770.312,1,109,0.0,-0.07803337030273506
590,5,3339.557,-1,110,1.170500554541026,0.7803337030273506
591,5,13106.934,1,111,1.0534504990869233,1.170500554541026
592,5,2748.2490000000007,1,112,-1.6387007763574364,-1.170500554541026
593,5,2600.832000000001,1,113,0.5072169069677779,0.0
594,5,7194.944,-1,114,0.0,0.5072169069677779
595,5,6219.534000000002,-1,115,0.3901668515136753,0.0
596,5,6192.639,-1,116,-1.170500554541026,-1.6387007763574364
597,5,4581.567,1,117,-1.170500554541026,-1.3655839802978638
598,5,3802.61,-1,118,-1.170500554541026,-1.248533924843761
599,5,5948.0819999999985,1,119,-1.170500554541026,-0.8973837584814532
600,6,2260.55,-1,0,-1.170500554541026,-1.9898509427197442
601,6,1843.156,-1,1,1.2875506099951286,1.170500554541026
602,6,2730.824,-1,2,1.170500554541026,1.4046006654492311
603,6,2591.599,1,3,0.8973837584814532,1.170500554541026
604,6,2012.687,-1,4,1.4826340357519663,1.170500554541026
605,6,4287.015,1,5,-1.092467184238291,-1.170500554541026
606,6,5723.241,1,6,0.07803337030273506,0.0
607,6,2819.185,1,7,-1.170500554541026,-0.4682002218164104
608,6,2436.317,-1,8,1.170500554541026,1.248533924843761
609,6,2697.941,-1,9,-1.170500554541026,-0.8193503881787182
610,6,1706.21,-1,10,1.3265672951464962,1.170500554541026
611,6,2821.937,-1,11,0.0,-0.1170500554541026
612,6,2177.331,-1,12,1.170500554541026,0.9364004436328208
613,6,3235.244,-1,13,1.170500554541026,1.2875506099951286
614,6,2865.366,-1,14,-1.170500554541026,-1.7167341466601715
615,6,2002.322,-1,15,-0.4291835366650429,0.0
616,6,1829.599,-1,16,0.6242669624218805,0.0
617,6,1772.886,1,17,-0.1170500554541026,0.0
618,6,2618.333,-1,18,-0.8193503881787182,-1.170500554541026
619,6,5072.362,1,19,0.9364004436328208,1.170500554541026
620,6,2568.139,1,20,1.170500554541026,1.4826340357519663
621,6,2989.604000000001,-1,21,-1.170500554541026,-1.4436173506005987
622,6,1675.984,-1,22,0.1170500554541026,0.0
623,6,3503.513,-1,23,0.0,-0.4291835366650429
624,6,2771.247000000001,-1,24,1.4046006654492311,1.170500554541026
625,6,2388.186,-1,25,1.170500554541026,0.8973837584814532
626,6,3945.564,1,26,1.170500554541026,1.3265672951464962
627,6,3299.362,1,27,-1.170500554541026,-1.092467184238291
628,6,1688.906,1,28,-2.0678843130224793,-1.170500554541026
629,6,2604.156,1,29,-1.9898509427197442,-1.170500554541026
630,6,1623.296,1,30,-1.7947675169629065,-1.170500554541026
631,6,3169.172,-1,31,-1.170500554541026,-2.0678843130224793
632,6,2024.944,-1,32,-1.170500554541026,-1.7947675169629065
633,6,2595.24,-1,33,1.248533924843761,1.170500554541026
634,6,3293.758,1,34,0.0,0.1170500554541026
635,6,3866.424,1,35,-1.4436173506005987,-1.170500554541026
636,6,2417.686,1,36,0.0,0.6242669624218805
637,6,1925.797,-1,37,0.0,0.07803337030273506
638,6,2135.408,1,38,-1.7167341466601715,-1.170500554541026
639,6,2478.857,-1,39,-0.4682002218164104,-1.170500554541026
640,6,2425.369,1,40,-1.8728008872656416,-1.170500554541026
641,6,1891.933,-1,41,1.170500554541026,0.8583670733300858
642,6,2044.302,-1,42,1.0144338139355558,1.170500554541026
643,6,2331.542,1,43,0.0,0.4291835366650429
644,6,4785.945,1,44,-0.9754171287841883,-1.170500554541026
645,6,1920.198,-1,45,0.9754171287841883,1.170500554541026
646,6,1467.219,1,46,-0.6242669624218805,0.0
647,6,3917.63,1,47,0.0,0.19508342575683765
648,6,1610.102,-1,48,-1.170500554541026,-1.8728008872656416
649,6,3836.994,1,49,0.8193503881787182,1.170500554541026
650,6,2354.648,1,50,-1.170500554541026,-1.5216507209033339
651,6,3061.2990000000004,-1,51,1.092467184238291,1.170500554541026
652,6,3584.885,1,52,0.8583670733300858,1.170500554541026
653,6,1484.713,-1,53,-1.5216507209033339,-1.170500554541026
654,6,1891.344,-1,54,0.2341001109082052,0.0
655,6,1606.882,-1,55,-0.2341001109082052,0.0
656,6,1277.719,-1,56,0.5462335921191455,0.0
657,6,1658.101,-1,57,1.170500554541026,0.8193503881787182
658,6,2822.017000000001,-1,58,-0.5462335921191455,-1.170500554541026
659,6,2684.756,1,59,-1.170500554541026,-0.27311679605957273
660,6,1676.987,-1,60,0.19508342575683765,0.0
661,6,1805.868,-1,61,1.170500554541026,1.3655839802978638
662,6,1671.542,-1,62,-0.3511501663623078,-1.170500554541026
663,6,1571.427,-1,63,0.0,-0.5462335921191455
664,6,2280.73,1,64,-1.170500554541026,-0.7023003327246156
665,6,3221.795,1,65,-0.5462335921191455,0.0
666,6,2407.991,1,66,-1.170500554541026,-0.5462335921191455
667,6,2997.993,1,67,0.0,0.5462335921191455
668,6,1780.76,-1,68,1.170500554541026,1.0144338139355558
669,6,2413.601,1,69,-0.7023003327246156,-1.170500554541026
670,6,5177.366,-1,70,1.170500554541026,1.092467184238291
671,6,2263.326,1,71,-1.170500554541026,-0.3511501663623078
672,6,2444.753,-1,72,-0.27311679605957273,-1.170500554541026
673,6,3962.399,-1,73,-1.170500554541026,-0.9754171287841883
674,6,1620.34,-1,74,0.0,-0.6242669624218805
675,6,1457.779,-1,75,0.0,-0.2341001109082052
676,6,2387.043,-1,76,1.170500554541026,0.9754171287841883
677,6,2361.97,-1,77,0.0,0.2341001109082052
678,6,2214.81,1,78,1.3655839802978638,1.170500554541026
679,6,1816.238,-1,79,0.4291835366650429,0.0
680,6,1731.005,-1,80,1.170500554541026,1.0534504990869233
681,6,2851.458,1,81,1.170500554541026,1.5606674060547012
682,6,2398.445,1,82,0.0,-0.31213348121094026
683,6,1463.681,1,83,-1.3655839802978638,-1.170500554541026
684,6,2014.43,-1,84,-0.8973837584814532,-1.170500554541026
685,6,2120.2,1,85,-0.3901668515136753,0.0
686,6,1590.71,-1,86,0.0,0.31213348121094026
687,6,3189.212,1,87,-0.5072169069677779,0.0
688,6,1438.044,-1,88,0.0,-0.3901668515136753
689,6,1940.528,-1,89,-0.31213348121094026,0.0
690,6,4441.81,-1,90,0.0,0.3901668515136753
691,6,1528.134,-1,91,0.0,-0.5072169069677779
692,6,1431.446,-1,92,-0.07803337030273506,0.0
693,6,1663.206,-1,93,1.170500554541026,1.5216507209033339
694,6,1442.37,-1,94,-0.6242669624218805,-1.170500554541026
695,6,2646.513,-1,95,0.0,-0.19508342575683765
696,6,3014.756,1,96,0.7803337030273506,1.170500554541026
697,6,1225.74,-1,97,1.5216507209033339,1.170500554541026
698,6,2014.943,1,98,-1.170500554541026,-0.6242669624218805
699,6,1310.065,-1,99,0.31213348121094026,0.0
700,6,3393.889,1,100,1.2095172396923934,1.170500554541026
701,6,1245.218,-1,101,1.4436173506005987,1.170500554541026
702,6,1462.408,-1,102,1.1314838693896585,1.170500554541026
703,6,1597.046,-1,103,-1.248533924843761,-1.170500554541026
704,6,1587.007,-1,104,1.5606674060547012,1.170500554541026
705,6,1592.751,-1,105,1.170500554541026,1.1314838693896585
706,6,4144.806,1,106,-0.19508342575683765,0.0
707,6,1656.356,-1,107,1.170500554541026,1.2095172396923934
708,6,1462.895,-1,108,1.170500554541026,1.4436173506005987
709,6,1550.981,-1,109,0.0,-0.07803337030273506
710,6,1503.257,-1,110,1.170500554541026,0.7803337030273506
711,6,1716.808,-1,111,1.0534504990869233,1.170500554541026
712,6,1170.135,1,112,-1.6387007763574364,-1.170500554541026
713,6,1385.53,-1,113,0.5072169069677779,0.0
714,6,1559.527,1,114,0.0,0.5072169069677779
715,6,1404.849,-1,115,0.3901668515136753,0.0
716,6,4426.453,-1,116,-1.170500554541026,-1.6387007763574364
717,6,1465.382,-1,117,-1.170500554541026,-1.3655839802978638
718,6,1831.341,1,118,-1.170500554541026,-1.248533924843761
719,6,1191.365,1,119,-1.170500554541026,-0.8973837584814532
720,7,2540.528,-1,0,-1.170500554541026,-1.9898509427197442
721,7,1803.085,-1,1,1.2875506099951286,1.170500554541026
722,7,1677.886,-1,2,1.170500554541026,1.4046006654492311
723,7,4365.371,1,3,0.8973837584814532,1.170500554541026
724,7,2389.2870000000007,-1,4,1.4826340357519663,1.170500554541026
725,7,3377.805,-1,5,-1.092467184238291,-1.170500554541026
726,7,3784.675,-1,6,0.07803337030273506,0.0
727,7,16413.455,1,7,-1.170500554541026,-0.4682002218164104
728,7,5827.5480000000025,-1,8,1.170500554541026,1.248533924843761
729,7,12620.652,-1,9,-1.170500554541026,-0.8193503881787182
730,7,9482.994,1,10,1.3265672951464962,1.170500554541026
731,7,3521.427,-1,11,0.0,-0.1170500554541026
732,7,2778.823,-1,12,1.170500554541026,0.9364004436328208
733,7,8080.843000000003,-1,13,1.170500554541026,1.2875506099951286
734,7,12239.264,-1,14,-1.170500554541026,-1.7167341466601715
735,7,4362.292,-1,15,-0.4291835366650429,0.0
736,7,3057.76,-1,16,0.6242669624218805,0.0
737,7,3561.9,-1,17,-0.1170500554541026,0.0
738,7,3161.163,-1,18,-0.8193503881787182,-1.170500554541026
739,7,11508.136,-1,19,0.9364004436328208,1.170500554541026
740,7,10793.268,-1,20,1.170500554541026,1.4826340357519663
741,7,2590.077,-1,21,-1.170500554541026,-1.4436173506005987
742,7,3393.646,-1,22,0.1170500554541026,0.0
743,7,4699.779,-1,23,0.0,-0.4291835366650429
744,7,2150.871,-1,24,1.4046006654492311,1.170500554541026
745,7,3551.735,-1,25,1.170500554541026,0.8973837584814532
746,7,10303.177,-1,26,1.170500554541026,1.3265672951464962
747,7,11565.877,-1,27,-1.170500554541026,-1.092467184238291
748,7,19757.21,1,28,-2.0678843130224793,-1.170500554541026
749,7,4363.442,1,29,-1.9898509427197442,-1.170500554541026
750,7,8813.949,1,30,-1.7947675169629065,-1.170500554541026
751,7,4360.618,-1,31,-1.170500554541026,-2.0678843130224793
752,7,3519.583,-1,32,-1.170500554541026,-1.7947675169629065
753,7,5913.826,-1,33,1.248533924843761,1.170500554541026
754,7,2326.993,-1,34,0.0,0.1170500554541026
755,7,10471.065,-1,35,-1.4436173506005987,-1.170500554541026
756,7,3836.047,1,36,0.0,0.6242669624218805
757,7,3412.04,-1,37,0.0,0.07803337030273506
758,7,10925.699,1,38,-1.7167341466601715,-1.170500554541026
759,7,7813.467,-1,39,-0.4682002218164104,-1.170500554541026
760,7,5965.564,1,40,-1.8728008872656416,-1.170500554541026
761,7,3822.554,-1,41,1.170500554541026,0.8583670733300858
762,7,4079.596,1,42,1.0144338139355558,1.170500554541026
763,7,9497.507,1,43,0.0,0.4291835366650429
764,7,6977.5909999999985,-1,44,-0.9754171287841883,-1.170500554541026
765,7,2314.086,-1,45,0.9754171287841883,1.170500554541026
766,7,2606.052,1,46,-0.6242669624218805,0.0
767,7,1906.373,-1,47,0.0,0.19508342575683765
768,7,3149.876,1,48,-1.170500554541026,-1.8728008872656416
769,7,1323.84,1,49,0.8193503881787182,1.170500554541026
770,7,2000.422,-1,50,-1.170500554541026,-1.5216507209033339
771,7,5809.339,1,51,1.092467184238291,1.170500554541026
772,7,11412.856000000002,1,52,0.8583670733300858,1.170500554541026
773,7,4894.394,-1,53,-1.5216507209033339,-1.170500554541026
774,7,1918.664,-1,54,0.2341001109082052,0.0
775,7,16962.564,1,55,-0.2341001109082052,0.0
776,7,2624.68,-1,56,0.5462335921191455,0.0
777,7,1981.838,-1,57,1.170500554541026,0.8193503881787182
778,7,1826.308,-1,58,-0.5462335921191455,-1.170500554541026
779,7,2720.901,1,59,-1.170500554541026,-0.27311679605957273
780,7,7352.448,-1,60,0.19508342575683765,0.0
781,7,7470.791999999998,1,61,1.170500554541026,1.3655839802978638
782,7,1978.485,-1,62,-0.3511501663623078,-1.170500554541026
783,7,1912.798,-1,63,0.0,-0.5462335921191455
784,7,12046.813999999995,1,64,-1.170500554541026,-0.7023003327246156
785,7,3841.352,-1,65,-0.5462335921191455,0.0
786,7,3467.74,1,66,-1.170500554541026,-0.5462335921191455
787,7,12776.036,1,67,0.0,0.5462335921191455
788,7,2286.018,-1,68,1.170500554541026,1.0144338139355558
789,7,5683.752,-1,69,-0.7023003327246156,-1.170500554541026
790,7,2816.834000000001,1,70,1.170500554541026,1.092467184238291
791,7,2519.755,1,71,-1.170500554541026,-0.3511501663623078
792,7,3017.106,-1,72,-0.27311679605957273,-1.170500554541026
793,7,2250.793,-1,73,-1.170500554541026,-0.9754171287841883
794,7,3324.625,-1,74,0.0,-0.6242669624218805
795,7,2641.159,-1,75,0.0,-0.2341001109082052
796,7,3210.068,-1,76,1.170500554541026,0.9754171287841883
797,7,3212.384,-1,77,0.0,0.2341001109082052
798,7,1866.3,-1,78,1.3655839802978638,1.170500554541026
799,7,3729.593,-1,79,0.4291835366650429,0.0
800,7,3734.464,-1,80,1.170500554541026,1.0534504990869233
801,7,7637.415,-1,81,1.170500554541026,1.5606674060547012
802,7,1796.056,-1,82,0.0,-0.31213348121094026
803,7,3441.307,-1,83,-1.3655839802978638,-1.170500554541026
804,7,2410.442,-1,84,-0.8973837584814532,-1.170500554541026
805,7,1535.273,-1,85,-0.3901668515136753,0.0
806,7,8279.899,1,86,0.0,0.31213348121094026
807,7,3695.598,-1,87,-0.5072169069677779,0.0
808,7,1793.599,-1,88,0.0,-0.3901668515136753
809,7,2049.971,-1,89,-0.31213348121094026,0.0
810,7,6454.18,1,90,0.0,0.3901668515136753
811,7,1652.4820000000002,-1,91,0.0,-0.5072169069677779
812,7,4602.482,1,92,-0.07803337030273506,0.0
813,7,2436.168,-1,93,1.170500554541026,1.5216507209033339
814,7,3877.406,-1,94,-0.6242669624218805,-1.170500554541026
815,7,1958.408,-1,95,0.0,-0.19508342575683765
816,7,7497.271,1,96,0.7803337030273506,1.170500554541026
817,7,1909.779,-1,97,1.5216507209033339,1.170500554541026
818,7,2824.291,-1,98,-1.170500554541026,-0.6242669624218805
819,7,1675.047,-1,99,0.31213348121094026,0.0
820,7,1788.3529999999994,-1,100,1.2095172396923934,1.170500554541026
821,7,1869.825,-1,101,1.4436173506005987,1.170500554541026
822,7,5750.016,-1,102,1.1314838693896585,1.170500554541026
823,7,2405.223,-1,103,-1.248533924843761,-1.170500554541026
824,7,1763.336,-1,104,1.5606674060547012,1.170500554541026
825,7,1657.99,-1,105,1.170500554541026,1.1314838693896585
826,7,2819.102000000001,1,106,-0.19508342575683765,0.0
827,7,1617.067,-1,107,1.170500554541026,1.2095172396923934
828,7,8980.375,1,108,1.170500554541026,1.4436173506005987
829,7,1706.915,-1,109,0.0,-0.07803337030273506
830,7,1909.258,-1,110,1.170500554541026,0.7803337030273506
831,7,3047.705,1,111,1.0534504990869233,1.170500554541026
832,7,1574.966,-1,112,-1.6387007763574364,-1.170500554541026
833,7,2869.0040000000013,-1,113,0.5072169069677779,0.0
834,7,2347.152,1,114,0.0,0.5072169069677779
835,7,4466.404,-1,115,0.3901668515136753,0.0
836,7,3036.197,-1,116,-1.170500554541026,-1.6387007763574364
837,7,5712.335,-1,117,-1.170500554541026,-1.3655839802978638
838,7,2082.118,-1,118,-1.170500554541026,-1.248533924843761
839,7,5657.609,-1,119,-1.170500554541026,-0.8973837584814532
840,8,4931.005,-1,0,-1.170500554541026,-1.9898509427197442
841,8,2201.311,-1,1,1.2875506099951286,1.170500554541026
842,8,3136.24,1,2,1.170500554541026,1.4046006654492311
843,8,6726.24,-1,3,0.8973837584814532,1.170500554541026
844,8,1825.579,-1,4,1.4826340357519663,1.170500554541026
845,8,7191.191,1,5,-1.092467184238291,-1.170500554541026
846,8,5022.577,-1,6,0.07803337030273506,0.0
847,8,5351.962,1,7,-1.170500554541026,-0.4682002218164104
848,8,6017.398,1,8,1.170500554541026,1.248533924843761
849,8,4302.345,1,9,-1.170500554541026,-0.8193503881787182
850,8,3725.712,-1,10,1.3265672951464962,1.170500554541026
851,8,8632.844000000001,1,11,0.0,-0.1170500554541026
852,8,3949.768,-1,12,1.170500554541026,0.9364004436328208
853,8,4871.738,1,13,1.170500554541026,1.2875506099951286
854,8,7526.366,-1,14,-1.170500554541026,-1.7167341466601715
855,8,4214.918,1,15,-0.4291835366650429,0.0
856,8,2437.981,-1,16,0.6242669624218805,0.0
857,8,4873.235,-1,17,-0.1170500554541026,0.0
858,8,4016.557,-1,18,-0.8193503881787182,-1.170500554541026
859,8,7753.638000000001,1,19,0.9364004436328208,1.170500554541026
860,8,1978.586,-1,20,1.170500554541026,1.4826340357519663
861,8,7250.300999999998,-1,21,-1.170500554541026,-1.4436173506005987
862,8,6621.583000000001,-1,22,0.1170500554541026,0.0
863,8,2099.569,-1,23,0.0,-0.4291835366650429
864,8,2055.446,-1,24,1.4046006654492311,1.170500554541026
865,8,2333.077,-1,25,1.170500554541026,0.8973837584814532
866,8,4594.955,-1,26,1.170500554541026,1.3265672951464962
867,8,9217.327,-1,27,-1.170500554541026,-1.092467184238291
868,8,3333.158,1,28,-2.0678843130224793,-1.170500554541026
869,8,12462.491000000002,1,29,-1.9898509427197442,-1.170500554541026
870,8,2664.239,1,30,-1.7947675169629065,-1.170500554541026
871,8,10809.408,-1,31,-1.170500554541026,-2.0678843130224793
872,8,3254.2140000000004,-1,32,-1.170500554541026,-1.7947675169629065
873,8,1827.608,-1,33,1.248533924843761,1.170500554541026
874,8,6628.51,-1,34,0.0,0.1170500554541026
875,8,9029.66,1,35,-1.4436173506005987,-1.170500554541026
876,8,8494.599,1,36,0.0,0.6242669624218805
877,8,2609.038,-1,37,0.0,0.07803337030273506
878,8,3992.917,1,38,-1.7167341466601715,-1.170500554541026
879,8,6079.516,-1,39,-0.4682002218164104,-1.170500554541026
880,8,2798.97,-1,40,-1.8728008872656416,-1.170500554541026
881,8,1729.804,-1,41,1.170500554541026,0.8583670733300858
882,8,1877.844,-1,42,1.0144338139355558,1.170500554541026
883,8,3232.736,1,43,0.0,0.4291835366650429
884,8,2248.897,-1,44,-0.9754171287841883,-1.170500554541026
885,8,2051.915,-1,45,0.9754171287841883,1.170500554541026
886,8,1535.46,1,46,-0.6242669624218805,0.0
887,8,3373.361,1,47,0.0,0.19508342575683765
888,8,1809.149,-1,48,-1.170500554541026,-1.8728008872656416
889,8,2734.632,1,49,0.8193503881787182,1.170500554541026
890,8,2794.365,1,50,-1.170500554541026,-1.5216507209033339
891,8,2546.506,-1,51,1.092467184238291,1.170500554541026
892,8,2131.962,1,52,0.8583670733300858,1.170500554541026
893,8,3849.161,-1,53,-1.5216507209033339,-1.170500554541026
894,8,3392.605,-1,54,0.2341001109082052,0.0
895,8,3605.734,-1,55,-0.2341001109082052,0.0
896,8,2144.74,-1,56,0.5462335921191455,0.0
897,8,2174.261,-1,57,1.170500554541026,0.8193503881787182
898,8,1571.94,-1,58,-0.5462335921191455,-1.170500554541026
899,8,1742.6370000000006,-1,59,-1.170500554541026,-0.27311679605957273
900,8,2352.831,1,60,0.19508342575683765,0.0
901,8,6759.439,1,61,1.170500554541026,1.3655839802978638
902,8,2251.397,-1,62,-0.3511501663623078,-1.170500554541026
903,8,2173.127,-1,63,0.0,-0.5462335921191455
904,8,1704.156,1,64,-1.170500554541026,-0.7023003327246156
905,8,1743.33,1,65,-0.5462335921191455,0.0
906,8,1646.439,1,66,-1.170500554541026,-0.5462335921191455
907,8,2039.622,1,67,0.0,0.5462335921191455
908,8,1675.7420000000006,-1,68,1.170500554541026,1.0144338139355558
909,8,1763.484,-1,69,-0.7023003327246156,-1.170500554541026
910,8,2261.381,-1,70,1.170500554541026,1.092467184238291
911,8,2515.522,1,71,-1.170500554541026,-0.3511501663623078
912,8,3370.842,1,72,-0.27311679605957273,-1.170500554541026
913,8,2468.761,1,73,-1.170500554541026,-0.9754171287841883
914,8,1909.49,-1,74,0.0,-0.6242669624218805
915,8,4207.208,-1,75,0.0,-0.2341001109082052
916,8,1917.889,-1,76,1.170500554541026,0.9754171287841883
917,8,2471.071,-1,77,0.0,0.2341001109082052
918,8,2157.019,-1,78,1.3655839802978638,1.170500554541026
919,8,2608.648,-1,79,0.4291835366650429,0.0
920,8,5953.334,-1,80,1.170500554541026,1.0534504990869233
921,8,1816.584,1,81,1.170500554541026,1.5606674060547012
922,8,1597.207,-1,82,0.0,-0.31213348121094026
923,8,2356.35,1,83,-1.3655839802978638,-1.170500554541026
924,8,1568.646,-1,84,-0.8973837584814532,-1.170500554541026
925,8,1684.2020000000002,-1,85,-0.3901668515136753,0.0
926,8,1487.091,-1,86,0.0,0.31213348121094026
927,8,1492.9720000000002,-1,87,-0.5072169069677779,0.0
928,8,1482.4920000000006,-1,88,0.0,-0.3901668515136753
929,8,1957.235,1,89,-0.31213348121094026,0.0
930,8,1489.436,1,90,0.0,0.3901668515136753
931,8,1604.745,-1,91,0.0,-0.5072169069677779
932,8,1681.695,-1,92,-0.07803337030273506,0.0
933,8,1654.8629999999994,1,93,1.170500554541026,1.5216507209033339
934,8,1608.159,-1,94,-0.6242669624218805,-1.170500554541026
935,8,1337.638,-1,95,0.0,-0.19508342575683765
936,8,2440.471,1,96,0.7803337030273506,1.170500554541026
937,8,1575.245,-1,97,1.5216507209033339,1.170500554541026
938,8,2015.823,-1,98,-1.170500554541026,-0.6242669624218805
939,8,2109.254,-1,99,0.31213348121094026,0.0
940,8,1834.646,-1,100,1.2095172396923934,1.170500554541026
941,8,1710.672,-1,101,1.4436173506005987,1.170500554541026
942,8,1792.779,-1,102,1.1314838693896585,1.170500554541026
943,8,1716.701,-1,103,-1.248533924843761,-1.170500554541026
944,8,1792.024,-1,104,1.5606674060547012,1.170500554541026
945,8,3222.881,-1,105,1.170500554541026,1.1314838693896585
946,8,1853.679,-1,106,-0.19508342575683765,0.0
947,8,1256.672,-1,107,1.170500554541026,1.2095172396923934
948,8,1255.339,-1,108,1.170500554541026,1.4436173506005987
949,8,1437.8429999999994,-1,109,0.0,-0.07803337030273506
950,8,1549.129,-1,110,1.170500554541026,0.7803337030273506
951,8,1246.492,-1,111,1.0534504990869233,1.170500554541026
952,8,1726.535,1,112,-1.6387007763574364,-1.170500554541026
953,8,1176.152,-1,113,0.5072169069677779,0.0
954,8,1661.2679999999998,1,114,0.0,0.5072169069677779
955,8,1511.4029999999998,-1,115,0.3901668515136753,0.0
956,8,1570.601,-1,116,-1.170500554541026,-1.6387007763574364
957,8,1476.527,-1,117,-1.170500554541026,-1.3655839802978638
958,8,1724.697,-1,118,-1.170500554541026,-1.248533924843761
959,8,1499.0839999999994,-1,119,-1.170500554541026,-0.8973837584814532
960,9,1934.475,-1,0,-1.170500554541026,-1.9898509427197442
961,9,1540.831,-1,1,1.2875506099951286,1.170500554541026
962,9,1175.848,1,2,1.170500554541026,1.4046006654492311
963,9,1182.059,1,3,0.8973837584814532,1.170500554541026
964,9,1396.51,1,4,1.4826340357519663,1.170500554541026
965,9,1930.006,1,5,-1.092467184238291,-1.170500554541026
966,9,1308.294,1,6,0.07803337030273506,0.0
967,9,1036.766,1,7,-1.170500554541026,-0.4682002218164104
968,9,1449.936,-1,8,1.170500554541026,1.248533924843761
969,9,1058.787,1,9,-1.170500554541026,-0.8193503881787182
970,9,1717.17,-1,10,1.3265672951464962,1.170500554541026
971,9,1076.954,1,11,0.0,-0.1170500554541026
972,9,1352.932,-1,12,1.170500554541026,0.9364004436328208
973,9,1215.279,1,13,1.170500554541026,1.2875506099951286
974,9,1333.7579999999996,1,14,-1.170500554541026,-1.7167341466601715
975,9,1361.499,1,15,-0.4291835366650429,0.0
976,9,1991.731,-1,16,0.6242669624218805,0.0
977,9,1165.253,1,17,-0.1170500554541026,0.0
978,9,1295.232,1,18,-0.8193503881787182,-1.170500554541026
979,9,1256.585,-1,19,0.9364004436328208,1.170500554541026
980,9,1705.955,1,20,1.170500554541026,1.4826340357519663
981,9,1967.892,-1,21,-1.170500554541026,-1.4436173506005987
982,9,1166.65,-1,22,0.1170500554541026,0.0
983,9,1645.865,-1,23,0.0,-0.4291835366650429
984,9,1589.229,-1,24,1.4046006654492311,1.170500554541026
985,9,2286.502,1,25,1.170500554541026,0.8973837584814532
986,9,1508.455,1,26,1.170500554541026,1.3265672951464962
987,9,1655.83,1,27,-1.170500554541026,-1.092467184238291
988,9,1218.214,1,28,-2.0678843130224793,-1.170500554541026
989,9,1249.66,1,29,-1.9898509427197442,-1.170500554541026
990,9,2072.901,1,30,-1.7947675169629065,-1.170500554541026
991,9,2098.476,1,31,-1.170500554541026,-2.0678843130224793
992,9,2318.618,-1,32,-1.170500554541026,-1.7947675169629065
993,9,1977.603,-1,33,1.248533924843761,1.170500554541026
994,9,2210.398,-1,34,0.0,0.1170500554541026
995,9,2364.363,1,35,-1.4436173506005987,-1.170500554541026
996,9,2040.86,1,36,0.0,0.6242669624218805
997,9,1994.293,1,37,0.0,0.07803337030273506
998,9,1529.7979999999998,1,38,-1.7167341466601715,-1.170500554541026
999,9,2425.836,-1,39,-0.4682002218164104,-1.170500554541026
1000,9,1300.872,-1,40,-1.8728008872656416,-1.170500554541026
1001,9,1054.751,-1,41,1.170500554541026,0.8583670733300858
1002,9,1106.469,-1,42,1.0144338139355558,1.170500554541026
1003,9,1347.055,1,43,0.0,0.4291835366650429
1004,9,2228.3,1,44,-0.9754171287841883,-1.170500554541026
1005,9,2428.003,-1,45,0.9754171287841883,1.170500554541026
1006,9,1249.481,1,46,-0.6242669624218805,0.0
1007,9,1192.81,1,47,0.0,0.19508342575683765
1008,9,1595.585,-1,48,-1.170500554541026,-1.8728008872656416
1009,9,2120.993,-1,49,0.8193503881787182,1.170500554541026
1010,9,1511.851,1,50,-1.170500554541026,-1.5216507209033339
1011,9,1884.494,-1,51,1.092467184238291,1.170500554541026
1012,9,2066.95,1,52,0.8583670733300858,1.170500554541026
1013,9,2003.251,1,53,-1.5216507209033339,-1.170500554541026
1014,9,1867.288,1,54,0.2341001109082052,0.0
1015,9,2675.363,1,55,-0.2341001109082052,0.0
1016,9,1946.074,-1,56,0.5462335921191455,0.0
1017,9,1418.2579999999994,1,57,1.170500554541026,0.8193503881787182
1018,9,1381.159,1,58,-0.5462335921191455,-1.170500554541026
1019,9,3053.123,1,59,-1.170500554541026,-0.27311679605957273
1020,9,1265.693,-1,60,0.19508342575683765,0.0
1021,9,1815.269,1,61,1.170500554541026,1.3655839802978638
1022,9,1339.931,-1,62,-0.3511501663623078,-1.170500554541026
1023,9,1271.036,-1,63,0.0,-0.5462335921191455
1024,9,1844.011,1,64,-1.170500554541026,-0.7023003327246156
1025,9,1857.445,1,65,-0.5462335921191455,0.0
1026,9,1799.812,1,66,-1.170500554541026,-0.5462335921191455
1027,9,1272.332,1,67,0.0,0.5462335921191455
1028,9,1205.468,1,68,1.170500554541026,1.0144338139355558
1029,9,1390.371,1,69,-0.7023003327246156,-1.170500554541026
1030,9,1908.069,1,70,1.170500554541026,1.092467184238291
1031,9,1424.142,-1,71,-1.170500554541026,-0.3511501663623078
1032,9,1372.099,-1,72,-0.27311679605957273,-1.170500554541026
1033,9,2102.561,1,73,-1.170500554541026,-0.9754171287841883
1034,9,4213.558,-1,74,0.0,-0.6242669624218805
1035,9,1842.573,-1,75,0.0,-0.2341001109082052
1036,9,1551.521,-1,76,1.170500554541026,0.9754171287841883
1037,9,1512.8829999999994,1,77,0.0,0.2341001109082052
1038,9,1877.203,1,78,1.3655839802978638,1.170500554541026
1039,9,2026.825,-1,79,0.4291835366650429,0.0
1040,9,2098.8160000000007,-1,80,1.170500554541026,1.0534504990869233
1041,9,3274.327,1,81,1.170500554541026,1.5606674060547012
1042,9,1462.63,1,82,0.0,-0.31213348121094026
1043,9,1108.256,1,83,-1.3655839802978638,-1.170500554541026
1044,9,1124.838,-1,84,-0.8973837584814532,-1.170500554541026
1045,9,1977.762,1,85,-0.3901668515136753,0.0
1046,9,2128.403,1,86,0.0,0.31213348121094026
1047,9,1435.476,1,87,-0.5072169069677779,0.0
1048,9,1761.884,-1,88,0.0,-0.3901668515136753
1049,9,1466.2220000000002,1,89,-0.31213348121094026,0.0
1050,9,1354.152,1,90,0.0,0.3901668515136753
1051,9,1400.34,-1,91,0.0,-0.5072169069677779
1052,9,1141.456,1,92,-0.07803337030273506,0.0
1053,9,1343.439,-1,93,1.170500554541026,1.5216507209033339
1054,9,1688.372,-1,94,-0.6242669624218805,-1.170500554541026
1055,9,1452.339,1,95,0.0,-0.19508342575683765
1056,9,1166.344,1,96,0.7803337030273506,1.170500554541026
1057,9,1931.579,-1,97,1.5216507209033339,1.170500554541026
1058,9,4314.135,-1,98,-1.170500554541026,-0.6242669624218805
1059,9,1508.253,-1,99,0.31213348121094026,0.0
1060,9,1795.056,-1,100,1.2095172396923934,1.170500554541026
1061,9,1577.658,-1,101,1.4436173506005987,1.170500554541026
1062,9,1424.6729999999998,1,102,1.1314838693896585,1.170500554541026
1063,9,3135.489,-1,103,-1.248533924843761,-1.170500554541026
1064,9,1865.355,-1,104,1.5606674060547012,1.170500554541026
1065,9,1991.438,-1,105,1.170500554541026,1.1314838693896585
1066,9,2118.678,1,106,-0.19508342575683765,0.0
1067,9,1691.866,-1,107,1.170500554541026,1.2095172396923934
1068,9,2304.968,1,108,1.170500554541026,1.4436173506005987
1069,9,1434.476,1,109,0.0,-0.07803337030273506
1070,9,1629.369,-1,110,1.170500554541026,0.7803337030273506
1071,9,1102.14,1,111,1.0534504990869233,1.170500554541026
1072,9,1199.066,1,112,-1.6387007763574364,-1.170500554541026
1073,9,1727.3239999999994,1,113,0.5072169069677779,0.0
1074,9,1306.924,1,114,0.0,0.5072169069677779
1075,9,1751.975,1,115,0.3901668515136753,0.0
1076,9,1602.2220000000002,1,116,-1.170500554541026,-1.6387007763574364
1077,9,3075.759,1,117,-1.170500554541026,-1.3655839802978638
1078,9,2489.889,1,118,-1.170500554541026,-1.248533924843761
1079,9,3025.539,1,119,-1.170500554541026,-0.8973837584814532
1080,10,3736.991,-1,0,-1.170500554541026,-1.9898509427197442
1081,10,1653.211,-1,1,1.2875506099951286,1.170500554541026
1082,10,8416.123,1,2,1.170500554541026,1.4046006654492311
1083,10,2071.994,1,3,0.8973837584814532,1.170500554541026
1084,10,1730.19,-1,4,1.4826340357519663,1.170500554541026
1085,10,2771.217,1,5,-1.092467184238291,-1.170500554541026
1086,10,2459.204,1,6,0.07803337030273506,0.0
1087,10,2078.841,1,7,-1.170500554541026,-0.4682002218164104
1088,10,2362.94,1,8,1.170500554541026,1.248533924843761
1089,10,2434.135,1,9,-1.170500554541026,-0.8193503881787182
1090,10,1757.168,1,10,1.3265672951464962,1.170500554541026
1091,10,5145.206,1,11,0.0,-0.1170500554541026
1092,10,1340.961,-1,12,1.170500554541026,0.9364004436328208
1093,10,3698.658,-1,13,1.170500554541026,1.2875506099951286
1094,10,1507.605,-1,14,-1.170500554541026,-1.7167341466601715
1095,10,1235.475,1,15,-0.4291835366650429,0.0
1096,10,1457.088,-1,16,0.6242669624218805,0.0
1097,10,2494.292,1,17,-0.1170500554541026,0.0
1098,10,2932.98,-1,18,-0.8193503881787182,-1.170500554541026
1099,10,2451.452,1,19,0.9364004436328208,1.170500554541026
1100,10,5389.64,1,20,1.170500554541026,1.4826340357519663
1101,10,2740.613,-1,21,-1.170500554541026,-1.4436173506005987
1102,10,4739.92,-1,22,0.1170500554541026,0.0
1103,10,2034.764,-1,23,0.0,-0.4291835366650429
1104,10,2222.526,-1,24,1.4046006654492311,1.170500554541026
1105,10,1637.05,-1,25,1.170500554541026,0.8973837584814532
1106,10,3165.539,1,26,1.170500554541026,1.3265672951464962
1107,10,2209.962,-1,27,-1.170500554541026,-1.092467184238291
1108,10,1653.95,1,28,-2.0678843130224793,-1.170500554541026
1109,10,1436.418,1,29,-1.9898509427197442,-1.170500554541026
1110,10,1456.691,1,30,-1.7947675169629065,-1.170500554541026
1111,10,1329.32,-1,31,-1.170500554541026,-2.0678843130224793
1112,10,1237.902,-1,32,-1.170500554541026,-1.7947675169629065
1113,10,4309.021,-1,33,1.248533924843761,1.170500554541026
1114,10,2360.907,1,34,0.0,0.1170500554541026
1115,10,2633.718,1,35,-1.4436173506005987,-1.170500554541026
1116,10,2069.533,1,36,0.0,0.6242669624218805
1117,10,1541.861,-1,37,0.0,0.07803337030273506
1118,10,2597.874,1,38,-1.7167341466601715,-1.170500554541026
1119,10,2669.501,-1,39,-0.4682002218164104,-1.170500554541026
1120,10,2336.6910000000007,1,40,-1.8728008872656416,-1.170500554541026
1121,10,2502.564,-1,41,1.170500554541026,0.8583670733300858
1122,10,3873.099,1,42,1.0144338139355558,1.170500554541026
1123,10,2825.664,1,43,0.0,0.4291835366650429
1124,10,3008.745,1,44,-0.9754171287841883,-1.170500554541026
1125,10,1636.23,-1,45,0.9754171287841883,1.170500554541026
1126,10,1155.548,1,46,-0.6242669624218805,0.0
1127,10,3214.475,-1,47,0.0,0.19508342575683765
1128,10,3052.139,-1,48,-1.170500554541026,-1.8728008872656416
1129,10,2458.186,1,49,0.8193503881787182,1.170500554541026
1130,10,5171.365,-1,50,-1.170500554541026,-1.5216507209033339
1131,10,3510.092,-1,51,1.092467184238291,1.170500554541026
1132,10,3211.647,1,52,0.8583670733300858,1.170500554541026
1133,10,1058.044,1,53,-1.5216507209033339,-1.170500554541026
1134,10,5221.032,-1,54,0.2341001109082052,0.0
1135,10,3255.7940000000012,1,55,-0.2341001109082052,0.0
1136,10,1430.463,-1,56,0.5462335921191455,0.0
1137,10,1610.642,-1,57,1.170500554541026,0.8193503881787182
1138,10,2074.197,1,58,-0.5462335921191455,-1.170500554541026
1139,10,1262.237,1,59,-1.170500554541026,-0.27311679605957273
1140,10,2945.857,-1,60,0.19508342575683765,0.0
1141,10,7351.654,1,61,1.170500554541026,1.3655839802978638
1142,10,2482.427,-1,62,-0.3511501663623078,-1.170500554541026
1143,10,1291.3239999999996,-1,63,0.0,-0.5462335921191455
1144,10,2356.395,1,64,-1.170500554541026,-0.7023003327246156
1145,10,1330.5870000000002,-1,65,-0.5462335921191455,0.0
1146,10,2264.505,1,66,-1.170500554541026,-0.5462335921191455
1147,10,2100.158,1,67,0.0,0.5462335921191455
1148,10,1496.276,-1,68,1.170500554541026,1.0144338139355558
1149,10,3162.217,-1,69,-0.7023003327246156,-1.170500554541026
1150,10,1574.379,-1,70,1.170500554541026,1.092467184238291
1151,10,2115.252,1,71,-1.170500554541026,-0.3511501663623078
1152,10,2816.2940000000012,-1,72,-0.27311679605957273,-1.170500554541026
1153,10,2438.37,1,73,-1.170500554541026,-0.9754171287841883
1154,10,1997.502,-1,74,0.0,-0.6242669624218805
1155,10,1385.691,-1,75,0.0,-0.2341001109082052
1156,10,5441.257,1,76,1.170500554541026,0.9754171287841883
1157,10,3678.106,1,77,0.0,0.2341001109082052
1158,10,2843.507,-1,78,1.3655839802978638,1.170500554541026
1159,10,1709.499,-1,79,0.4291835366650429,0.0
1160,10,3448.474,1,80,1.170500554541026,1.0534504990869233
1161,10,2001.147,1,81,1.170500554541026,1.5606674060547012
1162,10,2892.033,-1,82,0.0,-0.31213348121094026
1163,10,1321.444,1,83,-1.3655839802978638,-1.170500554541026
1164,10,2314.263,-1,84,-0.8973837584814532,-1.170500554541026
1165,10,6228.2,-1,85,-0.3901668515136753,0.0
1166,10,1066.489,1,86,0.0,0.31213348121094026
1167,10,1764.0320000000006,1,87,-0.5072169069677779,0.0
1168,10,1403.79,-1,88,0.0,-0.3901668515136753
1169,10,1236.143,-1,89,-0.31213348121094026,0.0
1170,10,1200.47,1,90,0.0,0.3901668515136753
1171,10,1443.7620000000006,-1,91,0.0,-0.5072169069677779
1172,10,1816.375,1,92,-0.07803337030273506,0.0
1173,10,2130.63,1,93,1.170500554541026,1.5216507209033339
1174,10,6347.843000000003,-1,94,-0.6242669624218805,-1.170500554541026
1175,10,2640.37,-1,95,0.0,-0.19508342575683765
1176,10,2216.961,1,96,0.7803337030273506,1.170500554541026
1177,10,1285.889,-1,97,1.5216507209033339,1.170500554541026
1178,10,1833.967,1,98,-1.170500554541026,-0.6242669624218805
1179,10,2042.111,1,99,0.31213348121094026,0.0
1180,10,1562.155,-1,100,1.2095172396923934,1.170500554541026
1181,10,1721.177,-1,101,1.4436173506005987,1.170500554541026
1182,10,1232.152,-1,102,1.1314838693896585,1.170500554541026
1183,10,3342.02,-1,103,-1.248533924843761,-1.170500554541026
1184,10,1865.652,-1,104,1.5606674060547012,1.170500554541026
1185,10,4279.312,-1,105,1.170500554541026,1.1314838693896585
1186,10,2332.379,1,106,-0.19508342575683765,0.0
1187,10,2874.983,-1,107,1.170500554541026,1.2095172396923934
1188,10,2588.425,1,108,1.170500554541026,1.4436173506005987
1189,10,1532.4,1,109,0.0,-0.07803337030273506
1190,10,1241.75,-1,110,1.170500554541026,0.7803337030273506
1191,10,4626.554,-1,111,1.0534504990869233,1.170500554541026
1192,10,1099.336,1,112,-1.6387007763574364,-1.170500554541026
1193,10,1693.148,-1,113,0.5072169069677779,0.0
1194,10,1188.2,1,114,0.0,0.5072169069677779
1195,10,2188.882,-1,115,0.3901668515136753,0.0
1196,10,1153.027,-1,116,-1.170500554541026,-1.6387007763574364
1197,10,3372.397,-1,117,-1.170500554541026,-1.3655839802978638
1198,10,2141.581,1,118,-1.170500554541026,-1.248533924843761
1199,10,1306.07,1,119,-1.170500554541026,-0.8973837584814532
1200,11,7205.983,-1,0,-1.170500554541026,-1.9898509427197442
1201,11,19998.593,-1,1,1.2875506099951286,1.170500554541026
1202,11,7137.775,1,2,1.170500554541026,1.4046006654492311
1203,11,25257.305,-1,3,0.8973837584814532,1.170500554541026
1204,11,3362.208,-1,4,1.4826340357519663,1.170500554541026
1205,11,7017.678000000001,-1,5,-1.092467184238291,-1.170500554541026
1206,11,6164.984,1,6,0.07803337030273506,0.0
1207,11,5119.36,1,7,-1.170500554541026,-0.4682002218164104
1208,11,2237.529,-1,8,1.170500554541026,1.248533924843761
1209,11,6762.066999999999,-1,9,-1.170500554541026,-0.8193503881787182
1210,11,2311.99,-1,10,1.3265672951464962,1.170500554541026
1211,11,5385.946,-1,11,0.0,-0.1170500554541026
1212,11,5013.436,-1,12,1.170500554541026,0.9364004436328208
1213,11,10141.241,1,13,1.170500554541026,1.2875506099951286
1214,11,1752.273,-1,14,-1.170500554541026,-1.7167341466601715
1215,11,2370.396,1,15,-0.4291835366650429,0.0
1216,11,2708.692,-1,16,0.6242669624218805,0.0
1217,11,10099.824,1,17,-0.1170500554541026,0.0
1218,11,4645.418,-1,18,-0.8193503881787182,-1.170500554541026
1219,11,12998.986,1,19,0.9364004436328208,1.170500554541026
1220,11,5211.9540000000015,-1,20,1.170500554541026,1.4826340357519663
1221,11,3743.349,-1,21,-1.170500554541026,-1.4436173506005987
1222,11,3109.717,-1,22,0.1170500554541026,0.0
1223,11,3173.591,-1,23,0.0,-0.4291835366650429
1224,11,1860.656,-1,24,1.4046006654492311,1.170500554541026
1225,11,2084.243,-1,25,1.170500554541026,0.8973837584814532
1226,11,3787.501,1,26,1.170500554541026,1.3265672951464962
1227,11,6420.634,-1,27,-1.170500554541026,-1.092467184238291
1228,11,4208.008,1,28,-2.0678843130224793,-1.170500554541026
1229,11,2605.177,1,29,-1.9898509427197442,-1.170500554541026
1230,11,2968.402,1,30,-1.7947675169629065,-1.170500554541026
1231,11,1895.45,-1,31,-1.170500554541026,-2.0678843130224793
1232,11,1802.158,-1,32,-1.170500554541026,-1.7947675169629065
1233,11,1937.962,-1,33,1.248533924843761,1.170500554541026
1234,11,5061.215,-1,34,0.0,0.1170500554541026
1235,11,3229.7790000000005,1,35,-1.4436173506005987,-1.170500554541026
1236,11,2795.056,1,36,0.0,0.6242669624218805
1237,11,1881.78,-1,37,0.0,0.07803337030273506
1238,11,3240.8990000000013,1,38,-1.7167341466601715,-1.170500554541026
1239,11,4477.226,-1,39,-0.4682002218164104,-1.170500554541026
1240,11,2687.762,1,40,-1.8728008872656416,-1.170500554541026
1241,11,2689.618,-1,41,1.170500554541026,0.8583670733300858
1242,11,1769.454,-1,42,1.0144338139355558,1.170500554541026
1243,11,4536.286,-1,43,0.0,0.4291835366650429
1244,11,2743.343,1,44,-0.9754171287841883,-1.170500554541026
1245,11,2843.907,1,45,0.9754171287841883,1.170500554541026
1246,11,7210.607,1,46,-0.6242669624218805,0.0
1247,11,8377.961,1,47,0.0,0.19508342575683765
1248,11,3886.863,-1,48,-1.170500554541026,-1.8728008872656416
1249,11,1763.849,-1,49,0.8193503881787182,1.170500554541026
1250,11,7303.895,1,50,-1.170500554541026,-1.5216507209033339
1251,11,3534.0820000000012,1,51,1.092467184238291,1.170500554541026
1252,11,2148.839,1,52,0.8583670733300858,1.170500554541026
1253,11,2791.337,1,53,-1.5216507209033339,-1.170500554541026
1254,11,2028.795,-1,54,0.2341001109082052,0.0
1255,11,3088.72,1,55,-0.2341001109082052,0.0
1256,11,4853.714,-1,56,0.5462335921191455,0.0
1257,11,1864.535,-1,57,1.170500554541026,0.8193503881787182
1258,11,2078.99,-1,58,-0.5462335921191455,-1.170500554541026
1259,11,7112.401999999999,1,59,-1.170500554541026,-0.27311679605957273
1260,11,5146.265,-1,60,0.19508342575683765,0.0
1261,11,3957.137,1,61,1.170500554541026,1.3655839802978638
1262,11,5605.6330000000025,-1,62,-0.3511501663623078,-1.170500554541026
1263,11,3858.917,-1,63,0.0,-0.5462335921191455
1264,11,3866.477,1,64,-1.170500554541026,-0.7023003327246156
1265,11,10090.541,-1,65,-0.5462335921191455,0.0
1266,11,4324.304,1,66,-1.170500554541026,-0.5462335921191455
1267,11,21413.362,1,67,0.0,0.5462335921191455
1268,11,6232.021,-1,68,1.170500554541026,1.0144338139355558
1269,11,1966.864,-1,69,-0.7023003327246156,-1.170500554541026
1270,11,2071.327,-1,70,1.170500554541026,1.092467184238291
1271,11,2515.235,1,71,-1.170500554541026,-0.3511501663623078
1272,11,7100.4140000000025,-1,72,-0.27311679605957273,-1.170500554541026
1273,11,2024.837,-1,73,-1.170500554541026,-0.9754171287841883
1274,11,13906.223999999998,-1,74,0.0,-0.6242669624218805
1275,11,3782.858,1,75,0.0,-0.2341001109082052
1276,11,2844.036,-1,76,1.170500554541026,0.9754171287841883
1277,11,3896.436,-1,77,0.0,0.2341001109082052
1278,11,9063.275,-1,78,1.3655839802978638,1.170500554541026
1279,11,9224.087,-1,79,0.4291835366650429,0.0
1280,11,5934.043000000002,-1,80,1.170500554541026,1.0534504990869233
1281,11,5620.092,1,81,1.170500554541026,1.5606674060547012
1282,11,4725.86,-1,82,0.0,-0.31213348121094026
1283,11,2458.088,-1,83,-1.3655839802978638,-1.170500554541026
1284,11,4713.656,-1,84,-0.8973837584814532,-1.170500554541026
1285,11,5889.694,-1,85,-0.3901668515136753,0.0
1286,11,7370.666,1,86,0.0,0.31213348121094026
1287,11,4335.509,1,87,-0.5072169069677779,0.0
1288,11,6086.482,-1,88,0.0,-0.3901668515136753
1289,11,7796.757,1,89,-0.31213348121094026,0.0
1290,11,2339.991,1,90,0.0,0.3901668515136753
1291,11,17110.889,1,91,0.0,-0.5072169069677779
1292,11,3283.1690000000012,1,92,-0.07803337030273506,0.0
1293,11,8189.443,1,93,1.170500554541026,1.5216507209033339
1294,11,9023.685,-1,94,-0.6242669624218805,-1.170500554541026
1295,11,2890.884,-1,95,0.0,-0.19508342575683765
1296,11,2341.4120000000007,1,96,0.7803337030273506,1.170500554541026
1297,11,1701.515,-1,97,1.5216507209033339,1.170500554541026
1298,11,5335.5340000000015,1,98,-1.170500554541026,-0.6242669624218805
1299,11,3426.286,1,99,0.31213348121094026,0.0
1300,11,1762.0079999999994,-1,100,1.2095172396923934,1.170500554541026
1301,11,1917.575,-1,101,1.4436173506005987,1.170500554541026
1302,11,4289.202,-1,102,1.1314838693896585,1.170500554541026
1303,11,5466.972,1,103,-1.248533924843761,-1.170500554541026
1304,11,5389.663000000001,-1,104,1.5606674060547012,1.170500554541026
1305,11,5505.255,-1,105,1.170500554541026,1.1314838693896585
1306,11,7281.303000000001,1,106,-0.19508342575683765,0.0
1307,11,3460.741,-1,107,1.170500554541026,1.2095172396923934
1308,11,2174.413,-1,108,1.170500554541026,1.4436173506005987
1309,11,5571.986999999999,-1,109,0.0,-0.07803337030273506
1310,11,2261.369,-1,110,1.170500554541026,0.7803337030273506
1311,11,2294.443,-1,111,1.0534504990869233,1.170500554541026
1312,11,6211.309,1,112,-1.6387007763574364,-1.170500554541026
1313,11,3827.236,-1,113,0.5072169069677779,0.0
1314,11,5168.678,1,114,0.0,0.5072169069677779
1315,11,6455.771,-1,115,0.3901668515136753,0.0
1316,11,5957.186,1,116,-1.170500554541026,-1.6387007763574364
1317,11,3704.989,1,117,-1.170500554541026,-1.3655839802978638
1318,11,4106.09,1,118,-1.170500554541026,-1.248533924843761
1319,11,2312.514,1,119,-1.170500554541026,-0.8973837584814532
1320,12,4133.502,-1,0,-1.170500554541026,-1.9898509427197442
1321,12,2344.901,-1,1,1.2875506099951286,1.170500554541026
1322,12,4172.514,-1,2,1.170500554541026,1.4046006654492311
1323,12,2683.681,1,3,0.8973837584814532,1.170500554541026
1324,12,2372.649,-1,4,1.4826340357519663,1.170500554541026
1325,12,2718.9709999999995,1,5,-1.092467184238291,-1.170500554541026
1326,12,2275.609,-1,6,0.07803337030273506,0.0
1327,12,3663.207,1,7,-1.170500554541026,-0.4682002218164104
1328,12,4535.443,-1,8,1.170500554541026,1.248533924843761
1329,12,3811.3,1,9,-1.170500554541026,-0.8193503881787182
1330,12,1867.991,-1,10,1.3265672951464962,1.170500554541026
1331,12,3144.909,-1,11,0.0,-0.1170500554541026
1332,12,1893.776,-1,12,1.170500554541026,0.9364004436328208
1333,12,1612.25,-1,13,1.170500554541026,1.2875506099951286
1334,12,3018.789,-1,14,-1.170500554541026,-1.7167341466601715
1335,12,3229.2209999999995,-1,15,-0.4291835366650429,0.0
1336,12,2085.74,-1,16,0.6242669624218805,0.0
1337,12,3047.369,-1,17,-0.1170500554541026,0.0
1338,12,2189.348,-1,18,-0.8193503881787182,-1.170500554541026
1339,12,2105.953,-1,19,0.9364004436328208,1.170500554541026
1340,12,2914.9240000000004,-1,20,1.170500554541026,1.4826340357519663
1341,12,2821.451,-1,21,-1.170500554541026,-1.4436173506005987
1342,12,1907.541,-1,22,0.1170500554541026,0.0
1343,12,2266.263,-1,23,0.0,-0.4291835366650429
1344,12,1622.7179999999994,-1,24,1.4046006654492311,1.170500554541026
1345,12,1739.322,-1,25,1.170500554541026,0.8973837584814532
1346,12,1307.09,-1,26,1.170500554541026,1.3265672951464962
1347,12,2422.374,1,27,-1.170500554541026,-1.092467184238291
1348,12,1741.7620000000006,1,28,-2.0678843130224793,-1.170500554541026
1349,12,2127.148,1,29,-1.9898509427197442,-1.170500554541026
1350,12,1678.1470000000006,-1,30,-1.7947675169629065,-1.170500554541026
1351,12,1387.816,-1,31,-1.170500554541026,-2.0678843130224793
1352,12,3761.125,-1,32,-1.170500554541026,-1.7947675169629065
1353,12,2172.223,-1,33,1.248533924843761,1.170500554541026
1354,12,1835.106,-1,34,0.0,0.1170500554541026
1355,12,1694.167,-1,35,-1.4436173506005987,-1.170500554541026
1356,12,1639.164,-1,36,0.0,0.6242669624218805
1357,12,1822.856,-1,37,0.0,0.07803337030273506
1358,12,1955.912,-1,38,-1.7167341466601715,-1.170500554541026
1359,12,1829.862,-1,39,-0.4682002218164104,-1.170500554541026
1360,12,2394.368,1,40,-1.8728008872656416,-1.170500554541026
1361,12,2603.083,-1,41,1.170500554541026,0.8583670733300858
1362,12,1765.114,-1,42,1.0144338139355558,1.170500554541026
1363,12,2620.021,1,43,0.0,0.4291835366650429
1364,12,2092.026,-1,44,-0.9754171287841883,-1.170500554541026
1365,12,1375.6029999999994,-1,45,0.9754171287841883,1.170500554541026
1366,12,1931.041,-1,46,-0.6242669624218805,0.0
1367,12,2155.306,1,47,0.0,0.19508342575683765
1368,12,1245.369,-1,48,-1.170500554541026,-1.8728008872656416
1369,12,1689.2320000000002,1,49,0.8193503881787182,1.170500554541026
1370,12,1911.731,-1,50,-1.170500554541026,-1.5216507209033339
1371,12,1341.89,-1,51,1.092467184238291,1.170500554541026
1372,12,1148.135,-1,52,0.8583670733300858,1.170500554541026
1373,12,2136.489,1,53,-1.5216507209033339,-1.170500554541026
1374,12,2217.437,-1,54,0.2341001109082052,0.0
1375,12,1448.725,-1,55,-0.2341001109082052,0.0
1376,12,1879.483,-1,56,0.5462335921191455,0.0
1377,12,1172.7,-1,57,1.170500554541026,0.8193503881787182
1378,12,2866.3320000000012,-1,58,-0.5462335921191455,-1.170500554541026
1379,12,3222.912000000001,-1,59,-1.170500554541026,-0.27311679605957273
1380,12,1398.0120000000006,-1,60,0.19508342575683765,0.0
1381,12,2513.735,-1,61,1.170500554541026,1.3655839802978638
1382,12,4561.14,1,62,-0.3511501663623078,-1.170500554541026
1383,12,1761.128,-1,63,0.0,-0.5462335921191455
1384,12,2467.72,1,64,-1.170500554541026,-0.7023003327246156
1385,12,2671.93,1,65,-0.5462335921191455,0.0
1386,12,1884.568,-1,66,-1.170500554541026,-0.5462335921191455
1387,12,2232.173,1,67,0.0,0.5462335921191455
1388,12,1105.443,-1,68,1.170500554541026,1.0144338139355558
1389,12,3727.982,-1,69,-0.7023003327246156,-1.170500554541026
1390,12,1173.489,-1,70,1.170500554541026,1.092467184238291
1391,12,2806.945,1,71,-1.170500554541026,-0.3511501663623078
1392,12,2102.418,-1,72,-0.27311679605957273,-1.170500554541026
1393,12,2204.2270000000008,-1,73,-1.170500554541026,-0.9754171287841883
1394,12,1929.529,-1,74,0.0,-0.6242669624218805
1395,12,2294.689,-1,75,0.0,-0.2341001109082052
1396,12,1277.845,-1,76,1.170500554541026,0.9754171287841883
1397,12,3445.291,1,77,0.0,0.2341001109082052
1398,12,2538.5660000000007,-1,78,1.3655839802978638,1.170500554541026
1399,12,2016.201,-1,79,0.4291835366650429,0.0
1400,12,1864.1,-1,80,1.170500554541026,1.0534504990869233
1401,12,2652.956,-1,81,1.170500554541026,1.5606674060547012
1402,12,2208.343,-1,82,0.0,-0.31213348121094026
1403,12,3470.655,-1,83,-1.3655839802978638,-1.170500554541026
1404,12,1891.715,-1,84,-0.8973837584814532,-1.170500554541026
1405,12,1603.93,-1,85,-0.3901668515136753,0.0
1406,12,1766.97,-1,86,0.0,0.31213348121094026
1407,12,3594.639,1,87,-0.5072169069677779,0.0
1408,12,1325.091,-1,88,0.0,-0.3901668515136753
1409,12,1278.315,-1,89,-0.31213348121094026,0.0
1410,12,3239.257,1,90,0.0,0.3901668515136753
1411,12,1261.593,-1,91,0.0,-0.5072169069677779
1412,12,1838.701,-1,92,-0.07803337030273506,0.0
1413,12,1856.837,1,93,1.170500554541026,1.5216507209033339
1414,12,2209.429,-1,94,-0.6242669624218805,-1.170500554541026
1415,12,1270.56,-1,95,0.0,-0.19508342575683765
1416,12,1256.982,-1,96,0.7803337030273506,1.170500554541026
1417,12,1452.656,-1,97,1.5216507209033339,1.170500554541026
1418,12,2016.06,1,98,-1.170500554541026,-0.6242669624218805
1419,12,1395.569,-1,99,0.31213348121094026,0.0
1420,12,1502.5320000000006,-1,100,1.2095172396923934,1.170500554541026
1421,12,1211.473,-1,101,1.4436173506005987,1.170500554541026
1422,12,1307.368,-1,102,1.1314838693896585,1.170500554541026
1423,12,2329.4,1,103,-1.248533924843761,-1.170500554541026
1424,12,1350.66,-1,104,1.5606674060547012,1.170500554541026
1425,12,1188.06,-1,105,1.170500554541026,1.1314838693896585
1426,12,1724.1760000000006,1,106,-0.19508342575683765,0.0
1427,12,1287.188,-1,107,1.170500554541026,1.2095172396923934
1428,12,1480.7520000000006,-1,108,1.170500554541026,1.4436173506005987
1429,12,1532.6,-1,109,0.0,-0.07803337030273506
1430,12,1978.654,-1,110,1.170500554541026,0.7803337030273506
1431,12,1926.633,1,111,1.0534504990869233,1.170500554541026
1432,12,2075.389,1,112,-1.6387007763574364,-1.170500554541026
1433,12,1205.748,-1,113,0.5072169069677779,0.0
1434,12,1598.612,-1,114,0.0,0.5072169069677779
1435,12,1185.141,-1,115,0.3901668515136753,0.0
1436,12,1761.099,1,116,-1.170500554541026,-1.6387007763574364
1437,12,1941.056,1,117,-1.170500554541026,-1.3655839802978638
1438,12,2288.716,-1,118,-1.170500554541026,-1.248533924843761
1439,12,1670.329,-1,119,-1.170500554541026,-0.8973837584814532
1440,13,4071.551,-1,0,-1.170500554541026,-1.9898509427197442
1441,13,3803.34,-1,1,1.2875506099951286,1.170500554541026
1442,13,5355.137,-1,2,1.170500554541026,1.4046006654492311
1443,13,5200.359,1,3,0.8973837584814532,1.170500554541026
1444,13,4265.177,-1,4,1.4826340357519663,1.170500554541026
1445,13,5453.819,-1,5,-1.092467184238291,-1.170500554541026
1446,13,5005.561,-1,6,0.07803337030273506,0.0
1447,13,3920.254,1,7,-1.170500554541026,-0.4682002218164104
1448,13,6348.57,1,8,1.170500554541026,1.248533924843761
1449,13,6490.011,1,9,-1.170500554541026,-0.8193503881787182
1450,13,4763.616,-1,10,1.3265672951464962,1.170500554541026
1451,13,5934.736999999999,1,11,0.0,-0.1170500554541026
1452,13,5205.076,-1,12,1.170500554541026,0.9364004436328208
1453,13,4810.081,1,13,1.170500554541026,1.2875506099951286
1454,13,5431.334,-1,14,-1.170500554541026,-1.7167341466601715
1455,13,6128.27,-1,15,-0.4291835366650429,0.0
1456,13,4469.657,-1,16,0.6242669624218805,0.0
1457,13,5740.029,-1,17,-0.1170500554541026,0.0
1458,13,5992.316,1,18,-0.8193503881787182,-1.170500554541026
1459,13,5097.172000000001,1,19,0.9364004436328208,1.170500554541026
1460,13,4768.77,1,20,1.170500554541026,1.4826340357519663
1461,13,6163.882,1,21,-1.170500554541026,-1.4436173506005987
1462,13,5691.348000000001,-1,22,0.1170500554541026,0.0
1463,13,5221.368,-1,23,0.0,-0.4291835366650429
1464,13,4817.055,-1,24,1.4046006654492311,1.170500554541026
1465,13,6344.611999999999,-1,25,1.170500554541026,0.8973837584814532
1466,13,5554.286,1,26,1.170500554541026,1.3265672951464962
1467,13,6319.595,1,27,-1.170500554541026,-1.092467184238291
1468,13,5996.478,-1,28,-2.0678843130224793,-1.170500554541026
1469,13,4910.072,1,29,-1.9898509427197442,-1.170500554541026
1470,13,6431.187,1,30,-1.7947675169629065,-1.170500554541026
1471,13,6390.944,-1,31,-1.170500554541026,-2.0678843130224793
1472,13,6172.81,-1,32,-1.170500554541026,-1.7947675169629065
1473,13,5447.255,1,33,1.248533924843761,1.170500554541026
1474,13,4500.988,-1,34,0.0,0.1170500554541026
1475,13,5599.001,-1,35,-1.4436173506005987,-1.170500554541026
1476,13,4918.652,1,36,0.0,0.6242669624218805
1477,13,6631.776999999999,1,37,0.0,0.07803337030273506
1478,13,5534.829000000002,1,38,-1.7167341466601715,-1.170500554541026
1479,13,6145.396,-1,39,-0.4682002218164104,-1.170500554541026
1480,13,4088.777,1,40,-1.8728008872656416,-1.170500554541026
1481,13,4742.607,-1,41,1.170500554541026,0.8583670733300858
1482,13,6010.044,-1,42,1.0144338139355558,1.170500554541026
1483,13,4972.817,1,43,0.0,0.4291835366650429
1484,13,5159.719,-1,44,-0.9754171287841883,-1.170500554541026
1485,13,5641.536,1,45,0.9754171287841883,1.170500554541026
1486,13,4705.511,1,46,-0.6242669624218805,0.0
1487,13,6562.621,1,47,0.0,0.19508342575683765
1488,13,5491.312,-1,48,-1.170500554541026,-1.8728008872656416
1489,13,4989.419,1,49,0.8193503881787182,1.170500554541026
1490,13,5587.143,-1,50,-1.170500554541026,-1.5216507209033339
1491,13,5624.509,-1,51,1.092467184238291,1.170500554541026
1492,13,6289.553000000001,1,52,0.8583670733300858,1.170500554541026
1493,13,4868.574000000001,1,53,-1.5216507209033339,-1.170500554541026
1494,13,5237.417,-1,54,0.2341001109082052,0.0
1495,13,5083.344,1,55,-0.2341001109082052,0.0
1496,13,5152.319,-1,56,0.5462335921191455,0.0
1497,13,5295.773,-1,57,1.170500554541026,0.8193503881787182
1498,13,5441.379,1,58,-0.5462335921191455,-1.170500554541026
1499,13,6426.097,1,59,-1.170500554541026,-0.27311679605957273
1500,13,5147.489000000001,1,60,0.19508342575683765,0.0
1501,13,6903.816,1,61,1.170500554541026,1.3655839802978638
1502,13,5571.482,-1,62,-0.3511501663623078,-1.170500554541026
1503,13,4844.277,-1,63,0.0,-0.5462335921191455
1504,13,5286.754,1,64,-1.170500554541026,-0.7023003327246156
1505,13,6952.101,1,65,-0.5462335921191455,0.0
1506,13,6356.3809999999985,1,66,-1.170500554541026,-0.5462335921191455
1507,13,5737.051,1,67,0.0,0.5462335921191455
1508,13,5265.026,-1,68,1.170500554541026,1.0144338139355558
1509,13,5402.866999999998,-1,69,-0.7023003327246156,-1.170500554541026
1510,13,4650.749,-1,70,1.170500554541026,1.092467184238291
1511,13,2940.232,1,71,-1.170500554541026,-0.3511501663623078
1512,13,4932.683,-1,72,-0.27311679605957273,-1.170500554541026
1513,13,5092.359,-1,73,-1.170500554541026,-0.9754171287841883
1514,13,4935.015,-1,74,0.0,-0.6242669624218805
1515,13,5036.011,-1,75,0.0,-0.2341001109082052
1516,13,4137.873,-1,76,1.170500554541026,0.9754171287841883
1517,13,5783.6330000000025,1,77,0.0,0.2341001109082052
1518,13,4097.353,-1,78,1.3655839802978638,1.170500554541026
1519,13,5039.556,1,79,0.4291835366650429,0.0
1520,13,4714.41,-1,80,1.170500554541026,1.0534504990869233
1521,13,5761.401999999999,1,81,1.170500554541026,1.5606674060547012
1522,13,5739.5819999999985,1,82,0.0,-0.31213348121094026
1523,13,5124.3690000000015,1,83,-1.3655839802978638,-1.170500554541026
1524,13,4688.827,-1,84,-0.8973837584814532,-1.170500554541026
1525,13,5598.042,-1,85,-0.3901668515136753,0.0
1526,13,4835.5909999999985,1,86,0.0,0.31213348121094026
1527,13,5643.044,1,87,-0.5072169069677779,0.0
1528,13,3939.683,-1,88,0.0,-0.3901668515136753
1529,13,5921.8809999999985,1,89,-0.31213348121094026,0.0
1530,13,6611.578,-1,90,0.0,0.3901668515136753
1531,13,5733.983,-1,91,0.0,-0.5072169069677779
1532,13,5016.054,-1,92,-0.07803337030273506,0.0
1533,13,6418.795,1,93,1.170500554541026,1.5216507209033339
1534,13,5317.248000000001,1,94,-0.6242669624218805,-1.170500554541026
1535,13,6311.401,1,95,0.0,-0.19508342575683765
1536,13,3751.359,1,96,0.7803337030273506,1.170500554541026
1537,13,4003.975,-1,97,1.5216507209033339,1.170500554541026
1538,13,4861.518,1,98,-1.170500554541026,-0.6242669624218805
1539,13,4678.906,1,99,0.31213348121094026,0.0
1540,13,4940.484,1,100,1.2095172396923934,1.170500554541026
1541,13,4362.497,-1,101,1.4436173506005987,1.170500554541026
1542,13,5849.717,1,102,1.1314838693896585,1.170500554541026
1543,13,4097.076,-1,103,-1.248533924843761,-1.170500554541026
1544,13,9022.497,-1,104,1.5606674060547012,1.170500554541026
1545,13,6600.863,-1,105,1.170500554541026,1.1314838693896585
1546,13,5722.523,1,106,-0.19508342575683765,0.0
1547,13,4758.612,-1,107,1.170500554541026,1.2095172396923934
1548,13,6095.176,1,108,1.170500554541026,1.4436173506005987
1549,13,4348.855,-1,109,0.0,-0.07803337030273506
1550,13,4764.225,-1,110,1.170500554541026,0.7803337030273506
1551,13,5247.2959999999985,-1,111,1.0534504990869233,1.170500554541026
1552,13,4770.371,1,112,-1.6387007763574364,-1.170500554541026
1553,13,4668.312,-1,113,0.5072169069677779,0.0
1554,13,4745.915,1,114,0.0,0.5072169069677779
1555,13,4392.422000000001,1,115,0.3901668515136753,0.0
1556,13,4845.4540000000015,-1,116,-1.170500554541026,-1.6387007763574364
1557,13,5804.678000000001,1,117,-1.170500554541026,-1.3655839802978638
1558,13,4870.245,-1,118,-1.170500554541026,-1.248533924843761
1559,13,5993.969,-1,119,-1.170500554541026,-0.8973837584814532
1560,14,3324.308,-1,0,-1.170500554541026,-1.9898509427197442
1561,14,4480.32,1,1,1.2875506099951286,1.170500554541026
1562,14,2523.038,1,2,1.170500554541026,1.4046006654492311
1563,14,2791.3390000000004,1,3,0.8973837584814532,1.170500554541026
1564,14,6684.934,-1,4,1.4826340357519663,1.170500554541026
1565,14,4055.65,-1,5,-1.092467184238291,-1.170500554541026
1566,14,3286.518,-1,6,0.07803337030273506,0.0
1567,14,2964.972,1,7,-1.170500554541026,-0.4682002218164104
1568,14,5929.486,-1,8,1.170500554541026,1.248533924843761
1569,14,1761.845,1,9,-1.170500554541026,-0.8193503881787182
1570,14,1419.557,-1,10,1.3265672951464962,1.170500554541026
1571,14,1643.956,-1,11,0.0,-0.1170500554541026
1572,14,1249.042,-1,12,1.170500554541026,0.9364004436328208
1573,14,1372.969,-1,13,1.170500554541026,1.2875506099951286
1574,14,2401.027,-1,14,-1.170500554541026,-1.7167341466601715
1575,14,1245.098,-1,15,-0.4291835366650429,0.0
1576,14,1233.281,-1,16,0.6242669624218805,0.0
1577,14,1342.216,-1,17,-0.1170500554541026,0.0
1578,14,1259.717,-1,18,-0.8193503881787182,-1.170500554541026
1579,14,2073.05,1,19,0.9364004436328208,1.170500554541026
1580,14,3773.646,1,20,1.170500554541026,1.4826340357519663
1581,14,1497.685,-1,21,-1.170500554541026,-1.4436173506005987
1582,14,2165.322,1,22,0.1170500554541026,0.0
1583,14,1272.365,-1,23,0.0,-0.4291835366650429
1584,14,1367.841,-1,24,1.4046006654492311,1.170500554541026
1585,14,2336.13,-1,25,1.170500554541026,0.8973837584814532
1586,14,2073.203,1,26,1.170500554541026,1.3265672951464962
1587,14,2271.048,1,27,-1.170500554541026,-1.092467184238291
1588,14,1945.156,1,28,-2.0678843130224793,-1.170500554541026
1589,14,8341.024,1,29,-1.9898509427197442,-1.170500554541026
1590,14,1665.83,1,30,-1.7947675169629065,-1.170500554541026
1591,14,1219.089,-1,31,-1.170500554541026,-2.0678843130224793
1592,14,1168.573,-1,32,-1.170500554541026,-1.7947675169629065
1593,14,1321.304,-1,33,1.248533924843761,1.170500554541026
1594,14,1316.62,-1,34,0.0,0.1170500554541026
1595,14,1399.691,-1,35,-1.4436173506005987,-1.170500554541026
1596,14,2336.324,1,36,0.0,0.6242669624218805
1597,14,1289.006,-1,37,0.0,0.07803337030273506
1598,14,2602.567,1,38,-1.7167341466601715,-1.170500554541026
1599,14,1337.46,-1,39,-0.4682002218164104,-1.170500554541026
1600,14,3034.393,1,40,-1.8728008872656416,-1.170500554541026
1601,14,1726.455,-1,41,1.170500554541026,0.8583670733300858
1602,14,3010.505,-1,42,1.0144338139355558,1.170500554541026
1603,14,3630.022,1,43,0.0,0.4291835366650429
1604,14,10180.83,-1,44,-0.9754171287841883,-1.170500554541026
1605,14,5383.8719999999985,1,45,0.9754171287841883,1.170500554541026
1606,14,4386.3420000000015,-1,46,-0.6242669624218805,0.0
1607,14,7293.022,1,47,0.0,0.19508342575683765
1608,14,2719.974,-1,48,-1.170500554541026,-1.8728008872656416
1609,14,5170.8290000000015,1,49,0.8193503881787182,1.170500554541026
1610,14,8635.108,-1,50,-1.170500554541026,-1.5216507209033339
1611,14,5570.065,1,51,1.092467184238291,1.170500554541026
1612,14,3089.8390000000004,-1,52,0.8583670733300858,1.170500554541026
1613,14,2183.526,1,53,-1.5216507209033339,-1.170500554541026
1614,14,2594.473,-1,54,0.2341001109082052,0.0
1615,14,3695.539,1,55,-0.2341001109082052,0.0
1616,14,3132.579,-1,56,0.5462335921191455,0.0
1617,14,1289.7910000000004,-1,57,1.170500554541026,0.8193503881787182
1618,14,5681.5769999999975,-1,58,-0.5462335921191455,-1.170500554541026
1619,14,3496.864,1,59,-1.170500554541026,-0.27311679605957273
1620,14,1519.027,-1,60,0.19508342575683765,0.0
1621,14,4598.014,1,61,1.170500554541026,1.3655839802978638
1622,14,2953.836,-1,62,-0.3511501663623078,-1.170500554541026
1623,14,3660.782,-1,63,0.0,-0.5462335921191455
1624,14,6895.45,1,64,-1.170500554541026,-0.7023003327246156
1625,14,2595.649,1,65,-0.5462335921191455,0.0
1626,14,2868.746,1,66,-1.170500554541026,-0.5462335921191455
1627,14,3832.444,1,67,0.0,0.5462335921191455
1628,14,2633.974,-1,68,1.170500554541026,1.0144338139355558
1629,14,5024.522,-1,69,-0.7023003327246156,-1.170500554541026
1630,14,1779.915,-1,70,1.170500554541026,1.092467184238291
1631,14,4224.099,1,71,-1.170500554541026,-0.3511501663623078
1632,14,1386.497,-1,72,-0.27311679605957273,-1.170500554541026
1633,14,4284.96,-1,73,-1.170500554541026,-0.9754171287841883
1634,14,4919.425,-1,74,0.0,-0.6242669624218805
1635,14,4094.346,-1,75,0.0,-0.2341001109082052
1636,14,8258.419,-1,76,1.170500554541026,0.9754171287841883
1637,14,6018.196999999999,-1,77,0.0,0.2341001109082052
1638,14,4584.38,-1,78,1.3655839802978638,1.170500554541026
1639,14,5677.403,-1,79,0.4291835366650429,0.0
1640,14,4022.289,1,80,1.170500554541026,1.0534504990869233
1641,14,3577.684,1,81,1.170500554541026,1.5606674060547012
1642,14,2419.418,1,82,0.0,-0.31213348121094026
1643,14,2636.488,1,83,-1.3655839802978638,-1.170500554541026
1644,14,1578.246,-1,84,-0.8973837584814532,-1.170500554541026
1645,14,1717.583,1,85,-0.3901668515136753,0.0
1646,14,1695.674,1,86,0.0,0.31213348121094026
1647,14,1706.779,1,87,-0.5072169069677779,0.0
1648,14,2530.383,-1,88,0.0,-0.3901668515136753
1649,14,1934.216,1,89,-0.31213348121094026,0.0
1650,14,1507.17,-1,90,0.0,0.3901668515136753
1651,14,1112.674,-1,91,0.0,-0.5072169069677779
1652,14,1033.302,-1,92,-0.07803337030273506,0.0
1653,14,1911.303,1,93,1.170500554541026,1.5216507209033339
1654,14,2970.806,-1,94,-0.6242669624218805,-1.170500554541026
1655,14,3411.277,-1,95,0.0,-0.19508342575683765
1656,14,2324.178,1,96,0.7803337030273506,1.170500554541026
1657,14,1555.319,-1,97,1.5216507209033339,1.170500554541026
1658,14,1295.527,1,98,-1.170500554541026,-0.6242669624218805
1659,14,1378.195,-1,99,0.31213348121094026,0.0
1660,14,3603.538,1,100,1.2095172396923934,1.170500554541026
1661,14,1417.078,-1,101,1.4436173506005987,1.170500554541026
1662,14,1493.379,-1,102,1.1314838693896585,1.170500554541026
1663,14,1204.389,-1,103,-1.248533924843761,-1.170500554541026
1664,14,1120.662,-1,104,1.5606674060547012,1.170500554541026
1665,14,1066.639,1,105,1.170500554541026,1.1314838693896585
1666,14,1047.298,-1,106,-0.19508342575683765,0.0
1667,14,1080.82,-1,107,1.170500554541026,1.2095172396923934
1668,14,2406.61,-1,108,1.170500554541026,1.4436173506005987
1669,14,1064.427,-1,109,0.0,-0.07803337030273506
1670,14,1104.734,-1,110,1.170500554541026,0.7803337030273506
1671,14,1927.102,-1,111,1.0534504990869233,1.170500554541026
1672,14,4370.941,1,112,-1.6387007763574364,-1.170500554541026
1673,14,1375.695,-1,113,0.5072169069677779,0.0
1674,14,1286.488,-1,114,0.0,0.5072169069677779
1675,14,2458.285,-1,115,0.3901668515136753,0.0
1676,14,3166.4190000000012,-1,116,-1.170500554541026,-1.6387007763574364
1677,14,1586.569,-1,117,-1.170500554541026,-1.3655839802978638
1678,14,2434.474,1,118,-1.170500554541026,-1.248533924843761
1679,14,1479.644,-1,119,-1.170500554541026,-0.8973837584814532
1680,15,3213.057,-1,0,-1.170500554541026,-1.9898509427197442
1681,15,1911.881,-1,1,1.2875506099951286,1.170500554541026
1682,15,3329.31,1,2,1.170500554541026,1.4046006654492311
1683,15,3117.9040000000005,-1,3,0.8973837584814532,1.170500554541026
1684,15,2299.119,-1,4,1.4826340357519663,1.170500554541026
1685,15,2421.203,-1,5,-1.092467184238291,-1.170500554541026
1686,15,4847.147,1,6,0.07803337030273506,0.0
1687,15,5263.507,1,7,-1.170500554541026,-0.4682002218164104
1688,15,2595.804,-1,8,1.170500554541026,1.248533924843761
1689,15,2951.027,1,9,-1.170500554541026,-0.8193503881787182
1690,15,1781.246,-1,10,1.3265672951464962,1.170500554541026
1691,15,2734.038,-1,11,0.0,-0.1170500554541026
1692,15,2200.877,-1,12,1.170500554541026,0.9364004436328208
1693,15,2352.41,1,13,1.170500554541026,1.2875506099951286
1694,15,3729.995,-1,14,-1.170500554541026,-1.7167341466601715
1695,15,5162.3,1,15,-0.4291835366650429,0.0
1696,15,1931.223,-1,16,0.6242669624218805,0.0
1697,15,6761.232,1,17,-0.1170500554541026,0.0
1698,15,2898.953,-1,18,-0.8193503881787182,-1.170500554541026
1699,15,7102.359,-1,19,0.9364004436328208,1.170500554541026
1700,15,3027.068,1,20,1.170500554541026,1.4826340357519663
1701,15,3191.786,-1,21,-1.170500554541026,-1.4436173506005987
1702,15,2312.661,-1,22,0.1170500554541026,0.0
1703,15,1751.829,-1,23,0.0,-0.4291835366650429
1704,15,1885.989,-1,24,1.4046006654492311,1.170500554541026
1705,15,1841.842,-1,25,1.170500554541026,0.8973837584814532
1706,15,3151.2990000000004,1,26,1.170500554541026,1.3265672951464962
1707,15,2884.3459999999995,1,27,-1.170500554541026,-1.092467184238291
1708,15,2756.411,1,28,-2.0678843130224793,-1.170500554541026
1709,15,2296.337,1,29,-1.9898509427197442,-1.170500554541026
1710,15,2620.081,-1,30,-1.7947675169629065,-1.170500554541026
1711,15,3754.063,-1,31,-1.170500554541026,-2.0678843130224793
1712,15,2232.07,-1,32,-1.170500554541026,-1.7947675169629065
1713,15,4715.899,-1,33,1.248533924843761,1.170500554541026
1714,15,4339.1,-1,34,0.0,0.1170500554541026
1715,15,4913.117,1,35,-1.4436173506005987,-1.170500554541026
1716,15,3676.601,1,36,0.0,0.6242669624218805
1717,15,5630.674,-1,37,0.0,0.07803337030273506
1718,15,3010.181,1,38,-1.7167341466601715,-1.170500554541026
1719,15,2233.943,-1,39,-0.4682002218164104,-1.170500554541026
1720,15,2718.708,1,40,-1.8728008872656416,-1.170500554541026
1721,15,1756.919,-1,41,1.170500554541026,0.8583670733300858
1722,15,1910.429,-1,42,1.0144338139355558,1.170500554541026
1723,15,1606.328,-1,43,0.0,0.4291835366650429
1724,15,4621.395,1,44,-0.9754171287841883,-1.170500554541026
1725,15,6781.861,1,45,0.9754171287841883,1.170500554541026
1726,15,4229.285,-1,46,-0.6242669624218805,0.0
1727,15,3837.949,1,47,0.0,0.19508342575683765
1728,15,1884.373,-1,48,-1.170500554541026,-1.8728008872656416
1729,15,3025.372000000001,1,49,0.8193503881787182,1.170500554541026
1730,15,1598.082,-1,50,-1.170500554541026,-1.5216507209033339
1731,15,4371.913,1,51,1.092467184238291,1.170500554541026
1732,15,2226.644,1,52,0.8583670733300858,1.170500554541026
1733,15,2362.153,1,53,-1.5216507209033339,-1.170500554541026
1734,15,3672.313,-1,54,0.2341001109082052,0.0
1735,15,3397.7140000000004,-1,55,-0.2341001109082052,0.0
1736,15,2572.407,-1,56,0.5462335921191455,0.0
1737,15,1822.967,-1,57,1.170500554541026,0.8193503881787182
1738,15,2926.668,-1,58,-0.5462335921191455,-1.170500554541026
1739,15,3288.8990000000013,1,59,-1.170500554541026,-0.27311679605957273
1740,15,1954.916,-1,60,0.19508342575683765,0.0
1741,15,3543.855,1,61,1.170500554541026,1.3655839802978638
1742,15,2000.4,-1,62,-0.3511501663623078,-1.170500554541026
1743,15,1725.1470000000006,-1,63,0.0,-0.5462335921191455
1744,15,2511.125,1,64,-1.170500554541026,-0.7023003327246156
1745,15,2649.541,1,65,-0.5462335921191455,0.0
1746,15,2566.174,1,66,-1.170500554541026,-0.5462335921191455
1747,15,4575.964,1,67,0.0,0.5462335921191455
1748,15,5647.967,-1,68,1.170500554541026,1.0144338139355558
1749,15,3817.8,-1,69,-0.7023003327246156,-1.170500554541026
1750,15,1913.333,-1,70,1.170500554541026,1.092467184238291
1751,15,2582.84,1,71,-1.170500554541026,-0.3511501663623078
1752,15,2610.201,-1,72,-0.27311679605957273,-1.170500554541026
1753,15,1888.47,1,73,-1.170500554541026,-0.9754171287841883
1754,15,1708.715,-1,74,0.0,-0.6242669624218805
1755,15,2612.92,-1,75,0.0,-0.2341001109082052
1756,15,2526.137,1,76,1.170500554541026,0.9754171287841883
1757,15,2436.881,1,77,0.0,0.2341001109082052
1758,15,2371.353,-1,78,1.3655839802978638,1.170500554541026
1759,15,1880.462,-1,79,0.4291835366650429,0.0
1760,15,4807.99,1,80,1.170500554541026,1.0534504990869233
1761,15,1529.044,1,81,1.170500554541026,1.5606674060547012
1762,15,1627.6660000000006,-1,82,0.0,-0.31213348121094026
1763,15,2454.485,1,83,-1.3655839802978638,-1.170500554541026
1764,15,1884.516,-1,84,-0.8973837584814532,-1.170500554541026
1765,15,3335.151,1,85,-0.3901668515136753,0.0
1766,15,3638.464,-1,86,0.0,0.31213348121094026
1767,15,4355.9,1,87,-0.5072169069677779,0.0
1768,15,3821.367,-1,88,0.0,-0.3901668515136753
1769,15,1757.382,1,89,-0.31213348121094026,0.0
1770,15,2452.173,1,90,0.0,0.3901668515136753
1771,15,2488.712,-1,91,0.0,-0.5072169069677779
1772,15,3737.865,-1,92,-0.07803337030273506,0.0
1773,15,1937.901,-1,93,1.170500554541026,1.5216507209033339
1774,15,1545.585,1,94,-0.6242669624218805,-1.170500554541026
1775,15,1850.509,-1,95,0.0,-0.19508342575683765
1776,15,2344.205,1,96,0.7803337030273506,1.170500554541026
1777,15,1751.0279999999998,-1,97,1.5216507209033339,1.170500554541026
1778,15,5484.384,-1,98,-1.170500554541026,-0.6242669624218805
1779,15,5401.733,-1,99,0.31213348121094026,0.0
1780,15,2323.862,-1,100,1.2095172396923934,1.170500554541026
1781,15,1736.275,-1,101,1.4436173506005987,1.170500554541026
1782,15,2496.636,-1,102,1.1314838693896585,1.170500554541026
1783,15,2643.958,-1,103,-1.248533924843761,-1.170500554541026
1784,15,1751.451,-1,104,1.5606674060547012,1.170500554541026
1785,15,5616.222,1,105,1.170500554541026,1.1314838693896585
1786,15,6900.5059999999985,1,106,-0.19508342575683765,0.0
1787,15,6086.955,-1,107,1.170500554541026,1.2095172396923934
1788,15,5994.553000000001,1,108,1.170500554541026,1.4436173506005987
1789,15,3866.99,1,109,0.0,-0.07803337030273506
1790,15,2893.133,-1,110,1.170500554541026,0.7803337030273506
1791,15,1795.4260000000006,-1,111,1.0534504990869233,1.170500554541026
1792,15,5605.866,-1,112,-1.6387007763574364,-1.170500554541026
1793,15,1843.322,-1,113,0.5072169069677779,0.0
1794,15,2435.599,1,114,0.0,0.5072169069677779
