,parcode,trial,rt,choice,item_left,item_right
0,1,0,4261.735,-1,63,42
1,1,1,3559.258,1,126,123
2,1,2,3754.464,1,123,129
3,1,3,2431.751,-1,116,123
4,1,4,2199.342,-1,131,123
5,1,5,3269.922,-1,65,63
6,1,6,6606.698,-1,95,93
7,1,7,3642.146,1,63,81
8,1,8,5213.48,1,123,125
9,1,9,5511.334,1,63,72
10,1,10,2007.957,-1,127,123
11,1,11,3124.521,1,93,90
12,1,12,1978.076,-1,123,117
13,1,13,2508.548,1,123,126
14,1,14,3907.246,1,63,49
15,1,15,3482.062,1,82,93
16,1,16,1823.377,-1,109,93
17,1,17,5111.944,-1,90,93
18,1,18,4920.474,-1,72,63
19,1,19,1869.935,-1,117,123
20,1,20,1705.811,-1,123,131
21,1,21,3083.54,-1,63,56
22,1,22,2474.714,-1,96,93
23,1,23,2272.349,-1,93,82
24,1,24,3790.48,-1,129,123
25,1,25,2046.062,-1,123,116
26,1,26,3822.251,1,123,127
27,1,27,3347.54,-1,63,65
28,1,28,2252.245,1,40,63
29,1,29,2083.424,1,42,63
30,1,30,4155.502,1,47,63
31,1,31,2550.939,-1,63,40
32,1,32,5814.551,-1,63,47
33,1,33,1428.2879999999998,-1,125,123
34,1,34,1743.991,-1,93,96
35,1,35,2329.644,1,56,63
36,1,36,3381.75,1,93,109
37,1,37,2209.993,-1,93,95
38,1,38,3602.313,1,49,63
39,1,39,2506.099,-1,81,63
40,1,40,7964.300999999998,1,45,63
41,1,41,1743.8239999999994,-1,123,115
42,1,42,2122.334,-1,119,123
43,1,43,2518.011,1,93,104
44,1,44,2201.475,-1,68,63
45,1,45,2131.478,-1,118,123
46,1,46,2017.429,-1,77,93
47,1,47,3241.381,1,93,98
48,1,48,2528.386,-1,63,45
49,1,49,1679.8729999999994,1,114,123
50,1,50,1513.221,-1,63,54
51,1,51,3359.407,1,121,123
52,1,52,3815.203,-1,115,123
53,1,53,4747.633,-1,54,63
54,1,54,3013.624000000001,-1,99,93
55,1,55,3695.847,-1,87,93
56,1,56,1818.684,-1,107,93
57,1,57,3040.837,-1,123,114
58,1,58,3156.807,-1,79,63
59,1,59,5926.643,1,63,86
60,1,60,4156.099,1,98,93
61,1,61,2333.893,1,123,128
62,1,62,2362.993,-1,84,63
63,1,63,1705.088,-1,93,79
64,1,64,1720.385,1,63,75
65,1,65,1728.2179999999994,-1,79,93
66,1,66,2498.348,1,63,79
67,1,67,3240.459000000001,1,93,107
68,1,68,2765.97,1,123,119
69,1,69,2998.353,1,75,63
70,1,70,2079.715,-1,123,121
71,1,71,1666.1029999999994,1,63,84
72,1,72,2426.928,-1,86,63
73,1,73,3263.2990000000004,1,63,68
74,1,74,1723.836,-1,93,77
75,1,75,1368.6429999999998,-1,93,87
76,1,76,1990.443,-1,123,118
77,1,77,2997.126,-1,93,99
78,1,78,1573.53,-1,128,123
79,1,79,2306.153,-1,104,93
80,1,80,2773.406,-1,123,120
81,1,81,2122.486,1,123,133
82,1,82,1541.2910000000006,-1,93,85
83,1,83,1792.184,-1,58,63
84,1,84,1719.1229999999994,-1,70,63
85,1,85,5485.479,1,83,93
86,1,86,4941.353,1,93,101
87,1,87,1580.206,1,80,93
88,1,88,3148.962,-1,93,83
89,1,89,2129.2,1,85,93
90,1,90,1528.68,-1,93,103
91,1,91,1442.214,-1,93,80
92,1,92,1628.017,-1,91,93
93,1,93,2346.231,1,123,132
94,1,94,3316.3390000000004,-1,77,63
95,1,95,3031.183,-1,93,88
96,1,96,2266.764,-1,113,123
97,1,97,1321.42,-1,132,123
98,1,98,2265.431,1,63,77
99,1,99,4164.13,-1,101,93
100,1,100,2726.3920000000007,-1,124,123
101,1,101,2464.949,1,130,123
102,1,102,1844.314,1,122,123
103,1,103,4667.099,1,61,63
104,1,104,3192.227000000001,-1,133,123
105,1,105,2169.18,-1,123,122
106,1,106,2349.446,1,88,93
107,1,107,3171.303,-1,123,124
108,1,108,2993.885,-1,123,130
109,1,109,2046.197,-1,93,91
110,1,110,2000.771,-1,123,113
111,1,111,3949.34,1,120,123
112,1,112,2302.897,1,51,63
113,1,113,1967.521,-1,106,93
114,1,114,5436.005,-1,93,106
115,1,115,1555.042,-1,103,93
116,1,116,1991.723,-1,63,51
117,1,117,3401.665,-1,63,58
118,1,118,4202.816,1,63,61
119,1,119,2110.906,1,63,70
120,2,0,4393.264,-1,63,42
121,2,1,9018.968,1,126,123
122,2,2,2271.286,1,123,129
123,2,3,13824.456,-1,116,123
124,2,4,2308.854,-1,131,123
125,2,5,6735.222,-1,65,63
126,2,6,4220.918,-1,95,93
127,2,7,4542.710999999998,1,63,81
128,2,8,10213.207,1,123,125
129,2,9,12842.266,-1,63,72
130,2,10,5697.236,-1,127,123
131,2,11,9507.452,1,93,90
132,2,12,2202.626,-1,123,117
133,2,13,10523.383,-1,123,126
134,2,14,5659.319,-1,63,49
135,2,15,11711.122,-1,82,93
136,2,16,4957.49,-1,109,93
137,2,17,4295.431,1,90,93
138,2,18,3120.003,-1,72,63
139,2,19,6435.686,1,117,123
140,2,20,4288.92,1,123,131
141,2,21,9699.076,-1,63,56
142,2,22,12993.588,-1,96,93
143,2,23,6368.911,-1,93,82
144,2,24,5931.459,-1,129,123
145,2,25,13766.499,-1,123,116
146,2,26,3602.769,1,123,127
147,2,27,8029.58,1,63,65
148,2,28,9357.582,1,40,63
149,2,29,14391.407,1,42,63
150,2,30,13627.4,1,47,63
151,2,31,4957.208,-1,63,40
152,2,32,5640.168000000002,-1,63,47
153,2,33,8963.665,1,125,123
154,2,34,12768.284,-1,93,96
155,2,35,13402.299,1,56,63
156,2,36,8565.537,-1,93,109
157,2,37,8977.981,1,93,95
158,2,38,19471.289,1,49,63
159,2,39,3362.804,-1,81,63
160,2,40,10371.722,1,45,63
161,2,41,6100.871,-1,123,115
162,2,42,10341.341,1,119,123
163,2,43,6921.445,1,93,104
164,2,44,3024.208,-1,68,63
165,2,45,8126.898,1,118,123
166,2,46,6204.749,-1,77,93
167,2,47,4774.057,-1,93,98
168,2,48,4717.593,-1,63,45
169,2,49,12861.619,-1,114,123
170,2,50,8381.153,-1,63,54
171,2,51,7201.565,1,121,123
172,2,52,6935.852,1,115,123
173,2,53,8155.781999999997,1,54,63
174,2,54,11231.186000000005,-1,99,93
175,2,55,13460.855,1,87,93
176,2,56,5129.368,-1,107,93
177,2,57,3361.537000000001,-1,123,114
178,2,58,13908.459,-1,79,63
179,2,59,6783.104,1,63,86
180,2,60,9203.481,-1,98,93
181,2,61,5052.915,1,123,128
182,2,62,6342.498000000001,-1,84,63
183,2,63,3910.52,-1,93,79
184,2,64,4594.054,1,63,75
185,2,65,15601.451,-1,79,93
186,2,66,7309.275,1,63,79
187,2,67,5190.82,1,93,107
188,2,68,20879.898,-1,123,119
189,2,69,4408.831,-1,75,63
190,2,70,13117.59,-1,123,121
191,2,71,5613.9659999999985,1,63,84
192,2,72,5082.736,-1,86,63
193,2,73,8499.643,-1,63,68
194,2,74,7979.472,-1,93,77
195,2,75,15395.867,1,93,87
196,2,76,8201.57,-1,123,118
197,2,77,6820.168000000002,1,93,99
198,2,78,8076.828,-1,128,123
199,2,79,5123.042,-1,104,93
200,2,80,7575.096,-1,123,120
201,2,81,4658.442,1,123,133
202,2,82,7008.028,-1,93,85
203,2,83,13829.928,-1,58,63
204,2,84,2747.496,-1,70,63
205,2,85,12428.383,1,83,93
206,2,86,4775.54,-1,93,101
207,2,87,6153.953,1,80,93
208,2,88,5461.167,-1,93,83
209,2,89,7037.482,1,85,93
210,2,90,15416.275,1,93,103
211,2,91,5270.916,-1,93,80
212,2,92,5931.903,1,91,93
213,2,93,4572.768,1,123,132
214,2,94,5824.12,-1,77,63
215,2,95,8615.398000000001,1,93,88
216,2,96,8031.564,1,113,123
217,2,97,2722.327,-1,132,123
218,2,98,14101.24,1,63,77
219,2,99,8237.123,-1,101,93
220,2,100,5628.714,-1,124,123
221,2,101,7812.105,-1,130,123
222,2,102,13191.96,-1,122,123
223,2,103,7394.705,-1,61,63
224,2,104,13209.633,-1,133,123
225,2,105,9956.088,-1,123,122
226,2,106,11160.33,-1,88,93
227,2,107,10567.69,1,123,124
228,2,108,3856.248,1,123,130
229,2,109,9273.443,-1,93,91
230,2,110,2950.943,-1,123,113
231,2,111,13342.428,-1,120,123
232,2,112,7723.314,1,51,63
233,2,113,4339.511,-1,106,93
234,2,114,5191.56,1,93,106
235,2,115,4657.154,-1,103,93
236,2,116,5824.51,-1,63,51
237,2,117,18900.494,-1,63,58
238,2,118,4334.927,-1,63,61
239,2,119,8621.08,-1,63,70
240,3,0,4612.844,1,63,42
241,3,1,3098.9640000000004,-1,126,123
242,3,2,3949.32,-1,123,129
243,3,3,3992.314,1,116,123
244,3,4,3063.877,-1,131,123
245,3,5,6334.299,1,65,63
246,3,6,3503.517000000001,-1,95,93
247,3,7,5757.464,1,63,81
248,3,8,4202.759,1,123,125
249,3,9,3362.251,1,63,72
250,3,10,4765.607,-1,127,123
251,3,11,4393.51,-1,93,90
252,3,12,2648.53,-1,123,117
253,3,13,3205.018,1,123,126
254,3,14,2249.129,-1,63,49
255,3,15,3368.787000000001,1,82,93
256,3,16,1595.809,-1,109,93
257,3,17,2598.623,-1,90,93
258,3,18,3256.513,1,72,63
259,3,19,2950.898,1,117,123
260,3,20,2088.328,-1,123,131
261,3,21,2892.78,-1,63,56
262,3,22,3153.39,1,96,93
263,3,23,3489.703,-1,93,82
264,3,24,1597.213,-1,129,123
265,3,25,2715.458,-1,123,116
266,3,26,3544.648,1,123,127
267,3,27,5488.943,1,63,65
268,3,28,2793.11,1,40,63
269,3,29,3888.358,1,42,63
270,3,30,3968.847,1,47,63
271,3,31,5034.733,-1,63,40
272,3,32,2112.499,-1,63,47
273,3,33,2296.6620000000007,-1,125,123
274,3,34,3646.655,-1,93,96
275,3,35,4058.004,1,56,63
276,3,36,4104.806,1,93,109
277,3,37,2157.565,-1,93,95
278,3,38,5902.977,1,49,63
279,3,39,3965.283,-1,81,63
280,3,40,2874.212,1,45,63
281,3,41,1905.035,-1,123,115
282,3,42,3598.064000000001,-1,119,123
283,3,43,4363.497,1,93,104
284,3,44,3112.865,-1,68,63
285,3,45,1884.503,-1,118,123
286,3,46,1983.844,-1,77,93
287,3,47,3481.898,1,93,98
288,3,48,1740.578,-1,63,45
289,3,49,2775.34,1,114,123
290,3,50,3192.21,-1,63,54
291,3,51,2788.262,-1,121,123
292,3,52,2021.154,-1,115,123
293,3,53,2046.904,-1,54,63
294,3,54,2458.908,-1,99,93
295,3,55,11284.041,-1,87,93
296,3,56,2205.452,-1,107,93
297,3,57,2938.959000000001,1,123,114
298,3,58,2075.831,-1,79,63
299,3,59,6006.701,1,63,86
300,3,60,5185.448,-1,98,93
301,3,61,2171.165,-1,123,128
302,3,62,2231.588,-1,84,63
303,3,63,6749.729,-1,93,79
304,3,64,1702.985,1,63,75
305,3,65,4327.1,1,79,93
306,3,66,2781.398,1,63,79
307,3,67,2153.141,-1,93,107
308,3,68,5509.326,-1,123,119
309,3,69,3790.565,-1,75,63
310,3,70,1935.545,-1,123,121
311,3,71,5071.439,1,63,84
312,3,72,1970.037,-1,86,63
313,3,73,1915.188,-1,63,68
314,3,74,1806.863,-1,93,77
315,3,75,3215.543,-1,93,87
316,3,76,3040.316,-1,123,118
317,3,77,2795.6940000000004,1,93,99
318,3,78,2434.871,-1,128,123
319,3,79,2171.063,-1,104,93
320,3,80,6490.153,-1,123,120
321,3,81,2569.653,1,123,133
322,3,82,1734.384,1,93,85
323,3,83,1816.44,-1,58,63
324,3,84,3418.283,1,70,63
325,3,85,3388.941,1,83,93
326,3,86,3212.035,1,93,101
327,3,87,4191.488,1,80,93
328,3,88,2193.673,-1,93,83
329,3,89,2866.639,1,85,93
330,3,90,4461.154,1,93,103
331,3,91,1790.7120000000002,-1,93,80
332,3,92,3086.176,1,91,93
333,3,93,2421.588,1,123,132
334,3,94,5495.088000000002,-1,77,63
335,3,95,7992.571,1,93,88
336,3,96,1895.259,-1,113,123
337,3,97,1717.5279999999998,-1,132,123
338,3,98,5673.799,-1,63,77
339,3,99,1735.755,-1,101,93
340,3,100,1521.761,-1,124,123
341,3,101,1839.842,-1,130,123
342,3,102,2040.446,-1,122,123
343,3,103,3775.151,-1,61,63
344,3,104,4915.3420000000015,1,133,123
345,3,105,1945.35,-1,123,122
346,3,106,2987.0490000000004,1,88,93
347,3,107,2836.683,1,123,124
348,3,108,3238.171,-1,123,130
349,3,109,3324.511,-1,93,91
350,3,110,1673.779,-1,123,113
351,3,111,4260.273,1,120,123
352,3,112,3245.341,1,51,63
353,3,113,2464.32,-1,106,93
354,3,114,3971.055,1,93,106
355,3,115,4124.874,-1,103,93
356,3,116,3063.151,-1,63,51
357,3,117,2784.731,-1,63,58
358,3,118,2274.323,-1,63,61
359,3,119,3210.26,1,63,70
360,4,0,14824.897,-1,63,42
361,4,1,2083.157,1,126,123
362,4,2,9357.174,-1,123,129
363,4,3,2825.048,-1,116,123
364,4,4,1900.572,-1,131,123
365,4,5,4876.995,-1,65,63
366,4,6,1821.439,-1,95,93
367,4,7,7493.308000000001,1,63,81
368,4,8,4593.317,-1,123,125
369,4,9,2388.264,-1,63,72
370,4,10,4057.351,-1,127,123
371,4,11,3000.593,-1,93,90
372,4,12,3201.176,-1,123,117
373,4,13,8467.339,-1,123,126
374,4,14,15422.37,-1,63,49
375,4,15,22416.61,-1,82,93
376,4,16,2357.467,-1,109,93
377,4,17,19852.526,1,90,93
378,4,18,14929.605,1,72,63
379,4,19,6802.71,1,117,123
380,4,20,5623.276,1,123,131
381,4,21,8088.222,-1,63,56
382,4,22,8348.753,-1,96,93
383,4,23,2068.719,-1,93,82
384,4,24,2864.606,-1,129,123
385,4,25,1555.129,-1,123,116
386,4,26,2010.556,-1,123,127
387,4,27,25299.521,-1,63,65
388,4,28,1996.359,-1,40,63
389,4,29,15235.493,1,42,63
390,4,30,9458.254,1,47,63
391,4,31,1876.74,-1,63,40
392,4,32,6732.502,-1,63,47
393,4,33,1564.586,-1,125,123
394,4,34,10629.362,-1,93,96
395,4,35,9460.517,1,56,63
396,4,36,7210.473000000001,1,93,109
397,4,37,6251.0480000000025,-1,93,95
398,4,38,6443.4230000000025,-1,49,63
399,4,39,2842.802,-1,81,63
400,4,40,5514.536,1,45,63
401,4,41,1932.558,-1,123,115
402,4,42,9801.449,-1,119,123
403,4,43,5940.869000000002,1,93,104
404,4,44,3591.975,-1,68,63
405,4,45,2463.779,-1,118,123
406,4,46,4914.518,-1,77,93
407,4,47,3861.1540000000014,-1,93,98
408,4,48,1810.596,-1,63,45
409,4,49,6114.863,1,114,123
410,4,50,2444.855,-1,63,54
411,4,51,3256.276,-1,121,123
412,4,52,15007.925,-1,115,123
413,4,53,14697.957,1,54,63
414,4,54,1860.584,-1,99,93
415,4,55,5034.29,-1,87,93
416,4,56,7942.371,-1,107,93
417,4,57,1541.675,-1,123,114
418,4,58,1639.813,-1,79,63
419,4,59,3309.907,1,63,86
420,4,60,1652.721,-1,98,93
421,4,61,2686.6540000000005,-1,123,128
422,4,62,1650.025,-1,84,63
423,4,63,2717.362,-1,93,79
424,4,64,1869.81,-1,63,75
425,4,65,8438.741,1,79,93
426,4,66,1844.599,-1,63,79
427,4,67,3257.386,-1,93,107
428,4,68,1544.7620000000006,-1,123,119
429,4,69,1977.232,-1,75,63
430,4,70,5245.960999999998,-1,123,121
431,4,71,10697.016,1,63,84
432,4,72,5721.714,-1,86,63
433,4,73,7035.153,-1,63,68
434,4,74,1696.698,-1,93,77
435,4,75,5437.186,-1,93,87
436,4,76,1864.389,-1,123,118
437,4,77,6701.093000000003,-1,93,99
438,4,78,1591.685,-1,128,123
439,4,79,3241.106,-1,104,93
440,4,80,7326.800999999998,-1,123,120
441,4,81,10370.944,-1,123,133
442,4,82,6994.066,-1,93,85
443,4,83,20801.538,-1,58,63
444,4,84,3869.451,-1,70,63
445,4,85,10888.107,-1,83,93
446,4,86,15326.428,1,93,101
447,4,87,3698.599,1,80,93
448,4,88,1644.716,-1,93,83
449,4,89,5217.47,1,85,93
450,4,90,7844.831999999998,1,93,103
451,4,91,1715.8470000000002,-1,93,80
452,4,92,2732.0370000000007,-1,91,93
453,4,93,19264.999,-1,123,132
454,4,94,2416.989,-1,77,63
455,4,95,17362.41,-1,93,88
456,4,96,8393.032,1,113,123
457,4,97,4098.332,-1,132,123
458,4,98,10515.086,-1,63,77
459,4,99,31663.561,-1,101,93
460,4,100,13825.959,-1,124,123
461,4,101,3532.394,-1,130,123
462,4,102,6932.071999999999,-1,122,123
463,4,103,4322.377,-1,61,63
464,4,104,1712.77,-1,133,123
465,4,105,8741.851999999999,-1,123,122
466,4,106,18617.121,-1,88,93
467,4,107,7029.46,-1,123,124
468,4,108,17355.536,-1,123,130
469,4,109,1770.037,-1,93,91
470,4,110,5798.199000000001,-1,123,113
471,4,111,2808.845,-1,120,123
472,4,112,8212.237,1,51,63
473,4,113,2293.854,-1,106,93
474,4,114,8415.61,1,93,106
475,4,115,2697.0170000000007,-1,103,93
476,4,116,2157.263,-1,63,51
477,4,117,2450.887,-1,63,58
478,4,118,3564.241,-1,63,61
479,4,119,2070.507,-1,63,70
480,5,0,7222.438,-1,63,42
481,5,1,4765.239000000001,-1,126,123
482,5,2,3295.646,1,123,129
483,5,3,2944.05,1,116,123
484,5,4,4044.965,-1,131,123
485,5,5,5083.667,1,65,63
486,5,6,2478.845,-1,95,93
487,5,7,6831.774,-1,63,81
488,5,8,7215.97,-1,123,125
489,5,9,7304.288,-1,63,72
490,5,10,7185.6,1,127,123
491,5,11,9791.269,1,93,90
492,5,12,5181.088,-1,123,117
493,5,13,6220.18,1,123,126
494,5,14,4647.5920000000015,-1,63,49
495,5,15,8988.713,-1,82,93
496,5,16,3464.902,-1,109,93
497,5,17,10276.159,-1,90,93
498,5,18,5499.503000000002,-1,72,63
499,5,19,6396.53,1,117,123
500,5,20,3607.382,-1,123,131
501,5,21,4718.766,-1,63,56
502,5,22,6240.307,-1,96,93
503,5,23,3710.405,-1,93,82
504,5,24,4812.778,-1,129,123
505,5,25,3689.549,-1,123,116
506,5,26,7967.58,-1,123,127
507,5,27,6837.9659999999985,1,63,65
508,5,28,3779.256,1,40,63
509,5,29,3215.512,1,42,63
510,5,30,3665.191,1,47,63
511,5,31,6854.611999999999,-1,63,40
512,5,32,4058.527,-1,63,47
513,5,33,9497.24,-1,125,123
514,5,34,5471.917,-1,93,96
515,5,35,2581.39,1,56,63
516,5,36,2750.297,1,93,109
517,5,37,6351.305,-1,93,95
518,5,38,1710.409,1,49,63
519,5,39,5981.896,-1,81,63
520,5,40,4242.301,1,45,63
521,5,41,6513.653,-1,123,115
522,5,42,4276.049,1,119,123
523,5,43,4416.106,1,93,104
524,5,44,3549.203,-1,68,63
525,5,45,5117.803,-1,118,123
526,5,46,10385.769,-1,77,93
527,5,47,5970.382,1,93,98
528,5,48,4631.856,-1,63,45
529,5,49,3194.466,1,114,123
530,5,50,3151.831,-1,63,54
531,5,51,5548.877,-1,121,123
532,5,52,5032.219,-1,115,123
533,5,53,11801.06,-1,54,63
534,5,54,2841.384,-1,99,93
535,5,55,6339.8669999999975,1,87,93
536,5,56,3893.338,-1,107,93
537,5,57,1974.536,-1,123,114
538,5,58,1955.173,-1,79,63
539,5,59,4986.021,1,63,86
540,5,60,11520.602,1,98,93
541,5,61,4560.314,1,123,128
542,5,62,3483.968,-1,84,63
543,5,63,1815.661,-1,93,79
544,5,64,2644.911,1,63,75
545,5,65,5958.765,1,79,93
546,5,66,3971.287,-1,63,79
547,5,67,4262.166,-1,93,107
548,5,68,4680.479,1,123,119
549,5,69,2555.67,1,75,63
550,5,70,4514.502,1,123,121
551,5,71,4200.33,-1,63,84
552,5,72,3215.42,1,86,63
553,5,73,5822.605,-1,63,68
554,5,74,7330.5480000000025,1,93,77
555,5,75,4100.559,1,93,87
556,5,76,4450.724,1,123,118
557,5,77,7381.719,1,93,99
558,5,78,4154.848,1,128,123
559,5,79,7643.315,1,104,93
560,5,80,4333.5,-1,123,120
561,5,81,7113.265,-1,123,133
562,5,82,2821.7990000000004,-1,93,85
563,5,83,6692.084,-1,58,63
564,5,84,5363.299,1,70,63
565,5,85,7395.46,1,83,93
566,5,86,7097.294,-1,93,101
567,5,87,4372.559,1,80,93
568,5,88,5583.156999999997,-1,93,83
569,5,89,4584.432,1,85,93
570,5,90,5412.8780000000015,-1,93,103
571,5,91,2244.948,-1,93,80
572,5,92,5185.66,1,91,93
573,5,93,2717.711,1,123,132
574,5,94,7714.071,-1,77,63
575,5,95,8222.693000000001,-1,93,88
576,5,96,7420.130999999998,-1,113,123
577,5,97,10990.016,-1,132,123
578,5,98,4468.544,1,63,77
579,5,99,2355.682,1,101,93
580,5,100,4612.005,1,124,123
581,5,101,9865.907,-1,130,123
582,5,102,3959.668,1,122,123
583,5,103,11031.357,1,61,63
584,5,104,2095.772,-1,133,123
585,5,105,3203.825,-1,123,122
586,5,106,4205.344,1,88,93
587,5,107,5260.121,-1,123,124
588,5,108,3668.326,-1,123,130
589,5,109,5770.312,1,93,91
590,5,110,3339.557,-1,123,113
591,5,111,13106.934,1,120,123
592,5,112,2748.2490000000007,1,51,63
593,5,113,2600.832000000001,1,106,93
594,5,114,7194.944,-1,93,106
595,5,115,6219.534000000002,-1,103,93
596,5,116,6192.639,-1,63,51
597,5,117,4581.567,1,63,58
598,5,118,3802.61,-1,63,61
599,5,119,5948.0819999999985,1,63,70
600,6,0,2260.55,-1,63,42
601,6,1,1843.156,-1,126,123
602,6,2,2730.824,-1,123,129
603,6,3,2591.599,1,116,123
604,6,4,2012.687,-1,131,123
605,6,5,4287.015,1,65,63
606,6,6,5723.241,1,95,93
607,6,7,2819.185,1,63,81
608,6,8,2436.317,-1,123,125
609,6,9,2697.941,-1,63,72
610,6,10,1706.21,-1,127,123
611,6,11,2821.937,-1,93,90
612,6,12,2177.331,-1,123,117
613,6,13,3235.244,-1,123,126
614,6,14,2865.366,-1,63,49
615,6,15,2002.322,-1,82,93
616,6,16,1829.599,-1,109,93
617,6,17,1772.886,1,90,93
618,6,18,2618.333,-1,72,63
619,6,19,5072.362,1,117,123
620,6,20,2568.139,1,123,131
621,6,21,2989.604000000001,-1,63,56
622,6,22,1675.984,-1,96,93
623,6,23,3503.513,-1,93,82
624,6,24,2771.247000000001,-1,129,123
625,6,25,2388.186,-1,123,116
626,6,26,3945.564,1,123,127
627,6,27,3299.362,1,63,65
628,6,28,1688.906,1,40,63
629,6,29,2604.156,1,42,63
630,6,30,1623.296,1,47,63
631,6,31,3169.172,-1,63,40
632,6,32,2024.944,-1,63,47
633,6,33,2595.24,-1,125,123
634,6,34,3293.758,1,93,96
635,6,35,3866.424,1,56,63
636,6,36,2417.686,1,93,109
637,6,37,1925.797,-1,93,95
638,6,38,2135.408,1,49,63
639,6,39,2478.857,-1,81,63
640,6,40,2425.369,1,45,63
641,6,41,1891.933,-1,123,115
642,6,42,2044.302,-1,119,123
643,6,43,2331.542,1,93,104
644,6,44,4785.945,1,68,63
645,6,45,1920.198,-1,118,123
646,6,46,1467.219,1,77,93
647,6,47,3917.63,1,93,98
648,6,48,1610.102,-1,63,45
649,6,49,3836.994,1,114,123
650,6,50,2354.648,1,63,54
651,6,51,3061.2990000000004,-1,121,123
652,6,52,3584.885,1,115,123
653,6,53,1484.713,-1,54,63
654,6,54,1891.344,-1,99,93
655,6,55,1606.882,-1,87,93
656,6,56,1277.719,-1,107,93
657,6,57,1658.101,-1,123,114
658,6,58,2822.017000000001,-1,79,63
659,6,59,2684.756,1,63,86
660,6,60,1676.987,-1,98,93
661,6,61,1805.868,-1,123,128
662,6,62,1671.542,-1,84,63
663,6,63,1571.427,-1,93,79
664,6,64,2280.73,1,63,75
665,6,65,3221.795,1,79,93
666,6,66,2407.991,1,63,79
667,6,67,2997.993,1,93,107
668,6,68,1780.76,-1,123,119
669,6,69,2413.601,1,75,63
670,6,70,5177.366,-1,123,121
671,6,71,2263.326,1,63,84
672,6,72,2444.753,-1,86,63
673,6,73,3962.399,-1,63,68
674,6,74,1620.34,-1,93,77
675,6,75,1457.779,-1,93,87
676,6,76,2387.043,-1,123,118
677,6,77,2361.97,-1,93,99
678,6,78,2214.81,1,128,123
679,6,79,1816.238,-1,104,93
680,6,80,1731.005,-1,123,120
681,6,81,2851.458,1,123,133
682,6,82,2398.445,1,93,85
683,6,83,1463.681,1,58,63
684,6,84,2014.43,-1,70,63
685,6,85,2120.2,1,83,93
686,6,86,1590.71,-1,93,101
687,6,87,3189.212,1,80,93
688,6,88,1438.044,-1,93,83
689,6,89,1940.528,-1,85,93
690,6,90,4441.81,-1,93,103
691,6,91,1528.134,-1,93,80
692,6,92,1431.446,-1,91,93
693,6,93,1663.206,-1,123,132
694,6,94,1442.37,-1,77,63
695,6,95,2646.513,-1,93,88
696,6,96,3014.756,1,113,123
697,6,97,1225.74,-1,132,123
698,6,98,2014.943,1,63,77
699,6,99,1310.065,-1,101,93
700,6,100,3393.889,1,124,123
701,6,101,1245.218,-1,130,123
702,6,102,1462.408,-1,122,123
703,6,103,1597.046,-1,61,63
704,6,104,1587.007,-1,133,123
705,6,105,1592.751,-1,123,122
706,6,106,4144.806,1,88,93
707,6,107,1656.356,-1,123,124
708,6,108,1462.895,-1,123,130
709,6,109,1550.981,-1,93,91
710,6,110,1503.257,-1,123,113
711,6,111,1716.808,-1,120,123
712,6,112,1170.135,1,51,63
713,6,113,1385.53,-1,106,93
714,6,114,1559.527,1,93,106
715,6,115,1404.849,-1,103,93
716,6,116,4426.453,-1,63,51
717,6,117,1465.382,-1,63,58
718,6,118,1831.341,1,63,61
719,6,119,1191.365,1,63,70
720,7,0,2540.528,-1,63,42
721,7,1,1803.085,-1,126,123
722,7,2,1677.886,-1,123,129
723,7,3,4365.371,1,116,123
724,7,4,2389.2870000000007,-1,131,123
725,7,5,3377.805,-1,65,63
726,7,6,3784.675,-1,95,93
727,7,7,16413.455,1,63,81
728,7,8,5827.5480000000025,-1,123,125
729,7,9,12620.652,-1,63,72
730,7,10,9482.994,1,127,123
731,7,11,3521.427,-1,93,90
732,7,12,2778.823,-1,123,117
733,7,13,8080.843000000003,-1,123,126
734,7,14,12239.264,-1,63,49
735,7,15,4362.292,-1,82,93
736,7,16,3057.76,-1,109,93
737,7,17,3561.9,-1,90,93
738,7,18,3161.163,-1,72,63
739,7,19,11508.136,-1,117,123
740,7,20,10793.268,-1,123,131
741,7,21,2590.077,-1,63,56
742,7,22,3393.646,-1,96,93
743,7,23,4699.779,-1,93,82
744,7,24,2150.871,-1,129,123
745,7,25,3551.735,-1,123,116
746,7,26,10303.177,-1,123,127
747,7,27,11565.877,-1,63,65
748,7,28,19757.21,1,40,63
749,7,29,4363.442,1,42,63
750,7,30,8813.949,1,47,63
751,7,31,4360.618,-1,63,40
752,7,32,3519.583,-1,63,47
753,7,33,5913.826,-1,125,123
754,7,34,2326.993,-1,93,96
755,7,35,10471.065,-1,56,63
756,7,36,3836.047,1,93,109
757,7,37,3412.04,-1,93,95
758,7,38,10925.699,1,49,63
759,7,39,7813.467,-1,81,63
760,7,40,5965.564,1,45,63
761,7,41,3822.554,-1,123,115
762,7,42,4079.596,1,119,123
763,7,43,9497.507,1,93,104
764,7,44,6977.5909999999985,-1,68,63
765,7,45,2314.086,-1,118,123
766,7,46,2606.052,1,77,93
767,7,47,1906.373,-1,93,98
768,7,48,3149.876,1,63,45
769,7,49,1323.84,1,114,123
770,7,50,2000.422,-1,63,54
771,7,51,5809.339,1,121,123
772,7,52,11412.856000000002,1,115,123
773,7,53,4894.394,-1,54,63
774,7,54,1918.664,-1,99,93
775,7,55,16962.564,1,87,93
776,7,56,2624.68,-1,107,93
777,7,57,1981.838,-1,123,114
778,7,58,1826.308,-1,79,63
779,7,59,2720.901,1,63,86
780,7,60,7352.448,-1,98,93
781,7,61,7470.791999999998,1,123,128
782,7,62,1978.485,-1,84,63
783,7,63,1912.798,-1,93,79
784,7,64,12046.813999999995,1,63,75
785,7,65,3841.352,-1,79,93
786,7,66,3467.74,1,63,79
787,7,67,12776.036,1,93,107
788,7,68,2286.018,-1,123,119
789,7,69,5683.752,-1,75,63
790,7,70,2816.834000000001,1,123,121
791,7,71,2519.755,1,63,84
792,7,72,3017.106,-1,86,63
793,7,73,2250.793,-1,63,68
794,7,74,3324.625,-1,93,77
795,7,75,2641.159,-1,93,87
796,7,76,3210.068,-1,123,118
797,7,77,3212.384,-1,93,99
798,7,78,1866.3,-1,128,123
799,7,79,3729.593,-1,104,93
800,7,80,3734.464,-1,123,120
801,7,81,7637.415,-1,123,133
802,7,82,1796.056,-1,93,85
803,7,83,3441.307,-1,58,63
804,7,84,2410.442,-1,70,63
805,7,85,1535.273,-1,83,93
806,7,86,8279.899,1,93,101
807,7,87,3695.598,-1,80,93
808,7,88,1793.599,-1,93,83
809,7,89,2049.971,-1,85,93
810,7,90,6454.18,1,93,103
811,7,91,1652.4820000000002,-1,93,80
812,7,92,4602.482,1,91,93
813,7,93,2436.168,-1,123,132
814,7,94,3877.406,-1,77,63
815,7,95,1958.408,-1,93,88
816,7,96,7497.271,1,113,123
817,7,97,1909.779,-1,132,123
818,7,98,2824.291,-1,63,77
819,7,99,1675.047,-1,101,93
820,7,100,1788.3529999999994,-1,124,123
821,7,101,1869.825,-1,130,123
822,7,102,5750.016,-1,122,123
823,7,103,2405.223,-1,61,63
824,7,104,1763.336,-1,133,123
825,7,105,1657.99,-1,123,122
826,7,106,2819.102000000001,1,88,93
827,7,107,1617.067,-1,123,124
828,7,108,8980.375,1,123,130
829,7,109,1706.915,-1,93,91
830,7,110,1909.258,-1,123,113
831,7,111,3047.705,1,120,123
832,7,112,1574.966,-1,51,63
833,7,113,2869.0040000000013,-1,106,93
834,7,114,2347.152,1,93,106
835,7,115,4466.404,-1,103,93
836,7,116,3036.197,-1,63,51
837,7,117,5712.335,-1,63,58
838,7,118,2082.118,-1,63,61
839,7,119,5657.609,-1,63,70
840,8,0,4931.005,-1,63,42
841,8,1,2201.311,-1,126,123
842,8,2,3136.24,1,123,129
843,8,3,6726.24,-1,116,123
844,8,4,1825.579,-1,131,123
845,8,5,7191.191,1,65,63
846,8,6,5022.577,-1,95,93
847,8,7,5351.962,1,63,81
848,8,8,6017.398,1,123,125
849,8,9,4302.345,1,63,72
850,8,10,3725.712,-1,127,123
851,8,11,8632.844000000001,1,93,90
852,8,12,3949.768,-1,123,117
853,8,13,4871.738,1,123,126
854,8,14,7526.366,-1,63,49
855,8,15,4214.918,1,82,93
856,8,16,2437.981,-1,109,93
857,8,17,4873.235,-1,90,93
858,8,18,4016.557,-1,72,63
859,8,19,7753.638000000001,1,117,123
860,8,20,1978.586,-1,123,131
861,8,21,7250.300999999998,-1,63,56
862,8,22,6621.583000000001,-1,96,93
863,8,23,2099.569,-1,93,82
864,8,24,2055.446,-1,129,123
865,8,25,2333.077,-1,123,116
866,8,26,4594.955,-1,123,127
867,8,27,9217.327,-1,63,65
868,8,28,3333.158,1,40,63
869,8,29,12462.491000000002,1,42,63
870,8,30,2664.239,1,47,63
871,8,31,10809.408,-1,63,40
872,8,32,3254.2140000000004,-1,63,47
873,8,33,1827.608,-1,125,123
874,8,34,6628.51,-1,93,96
875,8,35,9029.66,1,56,63
876,8,36,8494.599,1,93,109
877,8,37,2609.038,-1,93,95
878,8,38,3992.917,1,49,63
879,8,39,6079.516,-1,81,63
880,8,40,2798.97,-1,45,63
881,8,41,1729.804,-1,123,115
882,8,42,1877.844,-1,119,123
883,8,43,3232.736,1,93,104
884,8,44,2248.897,-1,68,63
885,8,45,2051.915,-1,118,123
886,8,46,1535.46,1,77,93
887,8,47,3373.361,1,93,98
888,8,48,1809.149,-1,63,45
889,8,49,2734.632,1,114,123
890,8,50,2794.365,1,63,54
891,8,51,2546.506,-1,121,123
892,8,52,2131.962,1,115,123
893,8,53,3849.161,-1,54,63
894,8,54,3392.605,-1,99,93
895,8,55,3605.734,-1,87,93
896,8,56,2144.74,-1,107,93
897,8,57,2174.261,-1,123,114
898,8,58,1571.94,-1,79,63
899,8,59,1742.6370000000006,-1,63,86
900,8,60,2352.831,1,98,93
901,8,61,6759.439,1,123,128
902,8,62,2251.397,-1,84,63
903,8,63,2173.127,-1,93,79
904,8,64,1704.156,1,63,75
905,8,65,1743.33,1,79,93
906,8,66,1646.439,1,63,79
907,8,67,2039.622,1,93,107
908,8,68,1675.7420000000006,-1,123,119
909,8,69,1763.484,-1,75,63
910,8,70,2261.381,-1,123,121
911,8,71,2515.522,1,63,84
912,8,72,3370.842,1,86,63
913,8,73,2468.761,1,63,68
914,8,74,1909.49,-1,93,77
915,8,75,4207.208,-1,93,87
916,8,76,1917.889,-1,123,118
917,8,77,2471.071,-1,93,99
918,8,78,2157.019,-1,128,123
919,8,79,2608.648,-1,104,93
920,8,80,5953.334,-1,123,120
921,8,81,1816.584,1,123,133
922,8,82,1597.207,-1,93,85
923,8,83,2356.35,1,58,63
924,8,84,1568.646,-1,70,63
925,8,85,1684.2020000000002,-1,83,93
926,8,86,1487.091,-1,93,101
927,8,87,1492.9720000000002,-1,80,93
928,8,88,1482.4920000000006,-1,93,83
929,8,89,1957.235,1,85,93
930,8,90,1489.436,1,93,103
931,8,91,1604.745,-1,93,80
932,8,92,1681.695,-1,91,93
933,8,93,1654.8629999999994,1,123,132
934,8,94,1608.159,-1,77,63
935,8,95,1337.638,-1,93,88
936,8,96,2440.471,1,113,123
937,8,97,1575.245,-1,132,123
938,8,98,2015.823,-1,63,77
939,8,99,2109.254,-1,101,93
940,8,100,1834.646,-1,124,123
941,8,101,1710.672,-1,130,123
942,8,102,1792.779,-1,122,123
943,8,103,1716.701,-1,61,63
944,8,104,1792.024,-1,133,123
945,8,105,3222.881,-1,123,122
946,8,106,1853.679,-1,88,93
947,8,107,1256.672,-1,123,124
948,8,108,1255.339,-1,123,130
949,8,109,1437.8429999999994,-1,93,91
950,8,110,1549.129,-1,123,113
951,8,111,1246.492,-1,120,123
952,8,112,1726.535,1,51,63
953,8,113,1176.152,-1,106,93
954,8,114,1661.2679999999998,1,93,106
955,8,115,1511.4029999999998,-1,103,93
956,8,116,1570.601,-1,63,51
957,8,117,1476.527,-1,63,58
958,8,118,1724.697,-1,63,61
959,8,119,1499.0839999999994,-1,63,70
960,9,0,1934.475,-1,63,42
961,9,1,1540.831,-1,126,123
962,9,2,1175.848,1,123,129
963,9,3,1182.059,1,116,123
964,9,4,1396.51,1,131,123
965,9,5,1930.006,1,65,63
966,9,6,1308.294,1,95,93
967,9,7,1036.766,1,63,81
968,9,8,1449.936,-1,123,125
969,9,9,1058.787,1,63,72
970,9,10,1717.17,-1,127,123
971,9,11,1076.954,1,93,90
972,9,12,1352.932,-1,123,117
973,9,13,1215.279,1,123,126
974,9,14,1333.7579999999996,1,63,49
975,9,15,1361.499,1,82,93
976,9,16,1991.731,-1,109,93
977,9,17,1165.253,1,90,93
978,9,18,1295.232,1,72,63
979,9,19,1256.585,-1,117,123
980,9,20,1705.955,1,123,131
981,9,21,1967.892,-1,63,56
982,9,22,1166.65,-1,96,93
983,9,23,1645.865,-1,93,82
984,9,24,1589.229,-1,129,123
985,9,25,2286.502,1,123,116
986,9,26,1508.455,1,123,127
987,9,27,1655.83,1,63,65
988,9,28,1218.214,1,40,63
989,9,29,1249.66,1,42,63
990,9,30,2072.901,1,47,63
991,9,31,2098.476,1,63,40
992,9,32,2318.618,-1,63,47
993,9,33,1977.603,-1,125,123
994,9,34,2210.398,-1,93,96
995,9,35,2364.363,1,56,63
996,9,36,2040.86,1,93,109
997,9,37,1994.293,1,93,95
998,9,38,1529.7979999999998,1,49,63
999,9,39,2425.836,-1,81,63
1000,9,40,1300.872,-1,45,63
1001,9,41,1054.751,-1,123,115
1002,9,42,1106.469,-1,119,123
1003,9,43,1347.055,1,93,104
1004,9,44,2228.3,1,68,63
1005,9,45,2428.003,-1,118,123
1006,9,46,1249.481,1,77,93
1007,9,47,1192.81,1,93,98
1008,9,48,1595.585,-1,63,45
1009,9,49,2120.993,-1,114,123
1010,9,50,1511.851,1,63,54
1011,9,51,1884.494,-1,121,123
1012,9,52,2066.95,1,115,123
1013,9,53,2003.251,1,54,63
1014,9,54,1867.288,1,99,93
1015,9,55,2675.363,1,87,93
1016,9,56,1946.074,-1,107,93
1017,9,57,1418.2579999999994,1,123,114
1018,9,58,1381.159,1,79,63
1019,9,59,3053.123,1,63,86
1020,9,60,1265.693,-1,98,93
1021,9,61,1815.269,1,123,128
1022,9,62,1339.931,-1,84,63
1023,9,63,1271.036,-1,93,79
1024,9,64,1844.011,1,63,75
1025,9,65,1857.445,1,79,93
1026,9,66,1799.812,1,63,79
1027,9,67,1272.332,1,93,107
1028,9,68,1205.468,1,123,119
1029,9,69,1390.371,1,75,63
1030,9,70,1908.069,1,123,121
1031,9,71,1424.142,-1,63,84
1032,9,72,1372.099,-1,86,63
1033,9,73,2102.561,1,63,68
1034,9,74,4213.558,-1,93,77
1035,9,75,1842.573,-1,93,87
1036,9,76,1551.521,-1,123,118
1037,9,77,1512.8829999999994,1,93,99
1038,9,78,1877.203,1,128,123
1039,9,79,2026.825,-1,104,93
1040,9,80,2098.8160000000007,-1,123,120
1041,9,81,3274.327,1,123,133
1042,9,82,1462.63,1,93,85
1043,9,83,1108.256,1,58,63
1044,9,84,1124.838,-1,70,63
1045,9,85,1977.762,1,83,93
1046,9,86,2128.403,1,93,101
1047,9,87,1435.476,1,80,93
1048,9,88,1761.884,-1,93,83
1049,9,89,1466.2220000000002,1,85,93
1050,9,90,1354.152,1,93,103
1051,9,91,1400.34,-1,93,80
1052,9,92,1141.456,1,91,93
1053,9,93,1343.439,-1,123,132
1054,9,94,1688.372,-1,77,63
1055,9,95,1452.339,1,93,88
1056,9,96,1166.344,1,113,123
1057,9,97,1931.579,-1,132,123
1058,9,98,4314.135,-1,63,77
1059,9,99,1508.253,-1,101,93
1060,9,100,1795.056,-1,124,123
1061,9,101,1577.658,-1,130,123
1062,9,102,1424.6729999999998,1,122,123
1063,9,103,3135.489,-1,61,63
1064,9,104,1865.355,-1,133,123
1065,9,105,1991.438,-1,123,122
1066,9,106,2118.678,1,88,93
1067,9,107,1691.866,-1,123,124
1068,9,108,2304.968,1,123,130
1069,9,109,1434.476,1,93,91
1070,9,110,1629.369,-1,123,113
1071,9,111,1102.14,1,120,123
1072,9,112,1199.066,1,51,63
1073,9,113,1727.3239999999994,1,106,93
1074,9,114,1306.924,1,93,106
1075,9,115,1751.975,1,103,93
1076,9,116,1602.2220000000002,1,63,51
1077,9,117,3075.759,1,63,58
1078,9,118,2489.889,1,63,61
1079,9,119,3025.539,1,63,70
1080,10,0,3736.991,-1,63,42
1081,10,1,1653.211,-1,126,123
1082,10,2,8416.123,1,123,129
1083,10,3,2071.994,1,116,123
1084,10,4,1730.19,-1,131,123
1085,10,5,2771.217,1,65,63
1086,10,6,2459.204,1,95,93
1087,10,7,2078.841,1,63,81
1088,10,8,2362.94,1,123,125
1089,10,9,2434.135,1,63,72
1090,10,10,1757.168,1,127,123
1091,10,11,5145.206,1,93,90
1092,10,12,1340.961,-1,123,117
1093,10,13,3698.658,-1,123,126
1094,10,14,1507.605,-1,63,49
1095,10,15,1235.475,1,82,93
1096,10,16,1457.088,-1,109,93
1097,10,17,2494.292,1,90,93
1098,10,18,2932.98,-1,72,63
1099,10,19,2451.452,1,117,123
1100,10,20,5389.64,1,123,131
1101,10,21,2740.613,-1,63,56
1102,10,22,4739.92,-1,96,93
1103,10,23,2034.764,-1,93,82
1104,10,24,2222.526,-1,129,123
1105,10,25,1637.05,-1,123,116
1106,10,26,3165.539,1,123,127
1107,10,27,2209.962,-1,63,65
1108,10,28,1653.95,1,40,63
1109,10,29,1436.418,1,42,63
1110,10,30,1456.691,1,47,63
1111,10,31,1329.32,-1,63,40
1112,10,32,1237.902,-1,63,47
1113,10,33,4309.021,-1,125,123
1114,10,34,2360.907,1,93,96
1115,10,35,2633.718,1,56,63
1116,10,36,2069.533,1,93,109
1117,10,37,1541.861,-1,93,95
1118,10,38,2597.874,1,49,63
1119,10,39,2669.501,-1,81,63
1120,10,40,2336.6910000000007,1,45,63
1121,10,41,2502.564,-1,123,115
1122,10,42,3873.099,1,119,123
1123,10,43,2825.664,1,93,104
1124,10,44,3008.745,1,68,63
1125,10,45,1636.23,-1,118,123
1126,10,46,1155.548,1,77,93
1127,10,47,3214.475,-1,93,98
1128,10,48,3052.139,-1,63,45
1129,10,49,2458.186,1,114,123
1130,10,50,5171.365,-1,63,54
1131,10,51,3510.092,-1,121,123
1132,10,52,3211.647,1,115,123
1133,10,53,1058.044,1,54,63
1134,10,54,5221.032,-1,99,93
1135,10,55,3255.7940000000012,1,87,93
1136,10,56,1430.463,-1,107,93
1137,10,57,1610.642,-1,123,114
1138,10,58,2074.197,1,79,63
1139,10,59,1262.237,1,63,86
1140,10,60,2945.857,-1,98,93
1141,10,61,7351.654,1,123,128
1142,10,62,2482.427,-1,84,63
1143,10,63,1291.3239999999996,-1,93,79
1144,10,64,2356.395,1,63,75
1145,10,65,1330.5870000000002,-1,79,93
1146,10,66,2264.505,1,63,79
1147,10,67,2100.158,1,93,107
1148,10,68,1496.276,-1,123,119
1149,10,69,3162.217,-1,75,63
1150,10,70,1574.379,-1,123,121
1151,10,71,2115.252,1,63,84
1152,10,72,2816.2940000000012,-1,86,63
1153,10,73,2438.37,1,63,68
1154,10,74,1997.502,-1,93,77
1155,10,75,1385.691,-1,93,87
1156,10,76,5441.257,1,123,118
1157,10,77,3678.106,1,93,99
1158,10,78,2843.507,-1,128,123
1159,10,79,1709.499,-1,104,93
1160,10,80,3448.474,1,123,120
1161,10,81,2001.147,1,123,133
1162,10,82,2892.033,-1,93,85
1163,10,83,1321.444,1,58,63
1164,10,84,2314.263,-1,70,63
1165,10,85,6228.2,-1,83,93
1166,10,86,1066.489,1,93,101
1167,10,87,1764.0320000000006,1,80,93
1168,10,88,1403.79,-1,93,83
1169,10,89,1236.143,-1,85,93
1170,10,90,1200.47,1,93,103
1171,10,91,1443.7620000000006,-1,93,80
1172,10,92,1816.375,1,91,93
1173,10,93,2130.63,1,123,132
1174,10,94,6347.843000000003,-1,77,63
1175,10,95,2640.37,-1,93,88
1176,10,96,2216.961,1,113,123
1177,10,97,1285.889,-1,132,123
1178,10,98,1833.967,1,63,77
1179,10,99,2042.111,1,101,93
1180,10,100,1562.155,-1,124,123
1181,10,101,1721.177,-1,130,123
1182,10,102,1232.152,-1,122,123
1183,10,103,3342.02,-1,61,63
1184,10,104,1865.652,-1,133,123
1185,10,105,4279.312,-1,123,122
1186,10,106,2332.379,1,88,93
1187,10,107,2874.983,-1,123,124
1188,10,108,2588.425,1,123,130
1189,10,109,1532.4,1,93,91
1190,10,110,1241.75,-1,123,113
1191,10,111,4626.554,-1,120,123
1192,10,112,1099.336,1,51,63
1193,10,113,1693.148,-1,106,93
1194,10,114,1188.2,1,93,106
1195,10,115,2188.882,-1,103,93
1196,10,116,1153.027,-1,63,51
1197,10,117,3372.397,-1,63,58
1198,10,118,2141.581,1,63,61
1199,10,119,1306.07,1,63,70
1200,11,0,7205.983,-1,63,42
1201,11,1,19998.593,-1,126,123
1202,11,2,7137.775,1,123,129
1203,11,3,25257.305,-1,116,123
1204,11,4,3362.208,-1,131,123
1205,11,5,7017.678000000001,-1,65,63
1206,11,6,6164.984,1,95,93
1207,11,7,5119.36,1,63,81
1208,11,8,2237.529,-1,123,125
1209,11,9,6762.066999999999,-1,63,72
1210,11,10,2311.99,-1,127,123
1211,11,11,5385.946,-1,93,90
1212,11,12,5013.436,-1,123,117
1213,11,13,10141.241,1,123,126
1214,11,14,1752.273,-1,63,49
1215,11,15,2370.396,1,82,93
1216,11,16,2708.692,-1,109,93
1217,11,17,10099.824,1,90,93
1218,11,18,4645.418,-1,72,63
1219,11,19,12998.986,1,117,123
1220,11,20,5211.9540000000015,-1,123,131
1221,11,21,3743.349,-1,63,56
1222,11,22,3109.717,-1,96,93
1223,11,23,3173.591,-1,93,82
1224,11,24,1860.656,-1,129,123
1225,11,25,2084.243,-1,123,116
1226,11,26,3787.501,1,123,127
1227,11,27,6420.634,-1,63,65
1228,11,28,4208.008,1,40,63
1229,11,29,2605.177,1,42,63
1230,11,30,2968.402,1,47,63
1231,11,31,1895.45,-1,63,40
1232,11,32,1802.158,-1,63,47
1233,11,33,1937.962,-1,125,123
1234,11,34,5061.215,-1,93,96
1235,11,35,3229.7790000000005,1,56,63
1236,11,36,2795.056,1,93,109
1237,11,37,1881.78,-1,93,95
1238,11,38,3240.8990000000013,1,49,63
1239,11,39,4477.226,-1,81,63
1240,11,40,2687.762,1,45,63
1241,11,41,2689.618,-1,123,115
1242,11,42,1769.454,-1,119,123
1243,11,43,4536.286,-1,93,104
1244,11,44,2743.343,1,68,63
1245,11,45,2843.907,1,118,123
1246,11,46,7210.607,1,77,93
1247,11,47,8377.961,1,93,98
1248,11,48,3886.863,-1,63,45
1249,11,49,1763.849,-1,114,123
1250,11,50,7303.895,1,63,54
1251,11,51,3534.0820000000012,1,121,123
1252,11,52,2148.839,1,115,123
1253,11,53,2791.337,1,54,63
1254,11,54,2028.795,-1,99,93
1255,11,55,3088.72,1,87,93
1256,11,56,4853.714,-1,107,93
1257,11,57,1864.535,-1,123,114
1258,11,58,2078.99,-1,79,63
1259,11,59,7112.401999999999,1,63,86
1260,11,60,5146.265,-1,98,93
1261,11,61,3957.137,1,123,128
1262,11,62,5605.6330000000025,-1,84,63
1263,11,63,3858.917,-1,93,79
1264,11,64,3866.477,1,63,75
1265,11,65,10090.541,-1,79,93
1266,11,66,4324.304,1,63,79
1267,11,67,21413.362,1,93,107
1268,11,68,6232.021,-1,123,119
1269,11,69,1966.864,-1,75,63
1270,11,70,2071.327,-1,123,121
1271,11,71,2515.235,1,63,84
1272,11,72,7100.4140000000025,-1,86,63
1273,11,73,2024.837,-1,63,68
1274,11,74,13906.223999999998,-1,93,77
1275,11,75,3782.858,1,93,87
1276,11,76,2844.036,-1,123,118
1277,11,77,3896.436,-1,93,99
1278,11,78,9063.275,-1,128,123
1279,11,79,9224.087,-1,104,93
1280,11,80,5934.043000000002,-1,123,120
1281,11,81,5620.092,1,123,133
1282,11,82,4725.86,-1,93,85
1283,11,83,2458.088,-1,58,63
1284,11,84,4713.656,-1,70,63
1285,11,85,5889.694,-1,83,93
1286,11,86,7370.666,1,93,101
1287,11,87,4335.509,1,80,93
1288,11,88,6086.482,-1,93,83
1289,11,89,7796.757,1,85,93
1290,11,90,2339.991,1,93,103
1291,11,91,17110.889,1,93,80
1292,11,92,3283.1690000000012,1,91,93
1293,11,93,8189.443,1,123,132
1294,11,94,9023.685,-1,77,63
1295,11,95,2890.884,-1,93,88
1296,11,96,2341.4120000000007,1,113,123
1297,11,97,1701.515,-1,132,123
1298,11,98,5335.5340000000015,1,63,77
1299,11,99,3426.286,1,101,93
1300,11,100,1762.0079999999994,-1,124,123
1301,11,101,1917.575,-1,130,123
1302,11,102,4289.202,-1,122,123
1303,11,103,5466.972,1,61,63
1304,11,104,5389.663000000001,-1,133,123
1305,11,105,5505.255,-1,123,122
1306,11,106,7281.303000000001,1,88,93
1307,11,107,3460.741,-1,123,124
1308,11,108,2174.413,-1,123,130
1309,11,109,5571.986999999999,-1,93,91
1310,11,110,2261.369,-1,123,113
1311,11,111,2294.443,-1,120,123
1312,11,112,6211.309,1,51,63
1313,11,113,3827.236,-1,106,93
1314,11,114,5168.678,1,93,106
1315,11,115,6455.771,-1,103,93
1316,11,116,5957.186,1,63,51
1317,11,117,3704.989,1,63,58
1318,11,118,4106.09,1,63,61
1319,11,119,2312.514,1,63,70
1320,12,0,4133.502,-1,63,42
1321,12,1,2344.901,-1,126,123
1322,12,2,4172.514,-1,123,129
1323,12,3,2683.681,1,116,123
1324,12,4,2372.649,-1,131,123
1325,12,5,2718.9709999999995,1,65,63
1326,12,6,2275.609,-1,95,93
1327,12,7,3663.207,1,63,81
1328,12,8,4535.443,-1,123,125
1329,12,9,3811.3,1,63,72
1330,12,10,1867.991,-1,127,123
1331,12,11,3144.909,-1,93,90
1332,12,12,1893.776,-1,123,117
1333,12,13,1612.25,-1,123,126
1334,12,14,3018.789,-1,63,49
1335,12,15,3229.2209999999995,-1,82,93
1336,12,16,2085.74,-1,109,93
1337,12,17,3047.369,-1,90,93
1338,12,18,2189.348,-1,72,63
1339,12,19,2105.953,-1,117,123
1340,12,20,2914.9240000000004,-1,123,131
1341,12,21,2821.451,-1,63,56
1342,12,22,1907.541,-1,96,93
1343,12,23,2266.263,-1,93,82
1344,12,24,1622.7179999999994,-1,129,123
1345,12,25,1739.322,-1,123,116
1346,12,26,1307.09,-1,123,127
1347,12,27,2422.374,1,63,65
1348,12,28,1741.7620000000006,1,40,63
1349,12,29,2127.148,1,42,63
1350,12,30,1678.1470000000006,-1,47,63
1351,12,31,1387.816,-1,63,40
1352,12,32,3761.125,-1,63,47
1353,12,33,2172.223,-1,125,123
1354,12,34,1835.106,-1,93,96
1355,12,35,1694.167,-1,56,63
1356,12,36,1639.164,-1,93,109
1357,12,37,1822.856,-1,93,95
1358,12,38,1955.912,-1,49,63
1359,12,39,1829.862,-1,81,63
1360,12,40,2394.368,1,45,63
1361,12,41,2603.083,-1,123,115
1362,12,42,1765.114,-1,119,123
1363,12,43,2620.021,1,93,104
1364,12,44,2092.026,-1,68,63
1365,12,45,1375.6029999999994,-1,118,123
1366,12,46,1931.041,-1,77,93
1367,12,47,2155.306,1,93,98
1368,12,48,1245.369,-1,63,45
1369,12,49,1689.2320000000002,1,114,123
1370,12,50,1911.731,-1,63,54
1371,12,51,1341.89,-1,121,123
1372,12,52,1148.135,-1,115,123
1373,12,53,2136.489,1,54,63
1374,12,54,2217.437,-1,99,93
1375,12,55,1448.725,-1,87,93
1376,12,56,1879.483,-1,107,93
1377,12,57,1172.7,-1,123,114
1378,12,58,2866.3320000000012,-1,79,63
1379,12,59,3222.912000000001,-1,63,86
1380,12,60,1398.0120000000006,-1,98,93
1381,12,61,2513.735,-1,123,128
1382,12,62,4561.14,1,84,63
1383,12,63,1761.128,-1,93,79
1384,12,64,2467.72,1,63,75
1385,12,65,2671.93,1,79,93
1386,12,66,1884.568,-1,63,79
1387,12,67,2232.173,1,93,107
1388,12,68,1105.443,-1,123,119
1389,12,69,3727.982,-1,75,63
1390,12,70,1173.489,-1,123,121
1391,12,71,2806.945,1,63,84
1392,12,72,2102.418,-1,86,63
1393,12,73,2204.2270000000008,-1,63,68
1394,12,74,1929.529,-1,93,77
1395,12,75,2294.689,-1,93,87
1396,12,76,1277.845,-1,123,118
1397,12,77,3445.291,1,93,99
1398,12,78,2538.5660000000007,-1,128,123
1399,12,79,2016.201,-1,104,93
1400,12,80,1864.1,-1,123,120
1401,12,81,2652.956,-1,123,133
1402,12,82,2208.343,-1,93,85
1403,12,83,3470.655,-1,58,63
1404,12,84,1891.715,-1,70,63
1405,12,85,1603.93,-1,83,93
1406,12,86,1766.97,-1,93,101
1407,12,87,3594.639,1,80,93
1408,12,88,1325.091,-1,93,83
1409,12,89,1278.315,-1,85,93
1410,12,90,3239.257,1,93,103
1411,12,91,1261.593,-1,93,80
1412,12,92,1838.701,-1,91,93
1413,12,93,1856.837,1,123,132
1414,12,94,2209.429,-1,77,63
1415,12,95,1270.56,-1,93,88
1416,12,96,1256.982,-1,113,123
1417,12,97,1452.656,-1,132,123
1418,12,98,2016.06,1,63,77
1419,12,99,1395.569,-1,101,93
1420,12,100,1502.5320000000006,-1,124,123
1421,12,101,1211.473,-1,130,123
1422,12,102,1307.368,-1,122,123
1423,12,103,2329.4,1,61,63
1424,12,104,1350.66,-1,133,123
1425,12,105,1188.06,-1,123,122
1426,12,106,1724.1760000000006,1,88,93
1427,12,107,1287.188,-1,123,124
1428,12,108,1480.7520000000006,-1,123,130
1429,12,109,1532.6,-1,93,91
1430,12,110,1978.654,-1,123,113
1431,12,111,1926.633,1,120,123
1432,12,112,2075.389,1,51,63
1433,12,113,1205.748,-1,106,93
1434,12,114,1598.612,-1,93,106
1435,12,115,1185.141,-1,103,93
1436,12,116,1761.099,1,63,51
1437,12,117,1941.056,1,63,58
1438,12,118,2288.716,-1,63,61
1439,12,119,1670.329,-1,63,70
1440,13,0,4071.551,-1,63,42
1441,13,1,3803.34,-1,126,123
1442,13,2,5355.137,-1,123,129
1443,13,3,5200.359,1,116,123
1444,13,4,4265.177,-1,131,123
1445,13,5,5453.819,-1,65,63
1446,13,6,5005.561,-1,95,93
1447,13,7,3920.254,1,63,81
1448,13,8,6348.57,1,123,125
1449,13,9,6490.011,1,63,72
1450,13,10,4763.616,-1,127,123
1451,13,11,5934.736999999999,1,93,90
1452,13,12,5205.076,-1,123,117
1453,13,13,4810.081,1,123,126
1454,13,14,5431.334,-1,63,49
1455,13,15,6128.27,-1,82,93
1456,13,16,4469.657,-1,109,93
1457,13,17,5740.029,-1,90,93
1458,13,18,5992.316,1,72,63
1459,13,19,5097.172000000001,1,117,123
1460,13,20,4768.77,1,123,131
1461,13,21,6163.882,1,63,56
1462,13,22,5691.348000000001,-1,96,93
1463,13,23,5221.368,-1,93,82
1464,13,24,4817.055,-1,129,123
1465,13,25,6344.611999999999,-1,123,116
1466,13,26,5554.286,1,123,127
1467,13,27,6319.595,1,63,65
1468,13,28,5996.478,-1,40,63
1469,13,29,4910.072,1,42,63
1470,13,30,6431.187,1,47,63
1471,13,31,6390.944,-1,63,40
1472,13,32,6172.81,-1,63,47
1473,13,33,5447.255,1,125,123
1474,13,34,4500.988,-1,93,96
1475,13,35,5599.001,-1,56,63
1476,13,36,4918.652,1,93,109
1477,13,37,6631.776999999999,1,93,95
1478,13,38,5534.829000000002,1,49,63
1479,13,39,6145.396,-1,81,63
1480,13,40,4088.777,1,45,63
1481,13,41,4742.607,-1,123,115
1482,13,42,6010.044,-1,119,123
1483,13,43,4972.817,1,93,104
1484,13,44,5159.719,-1,68,63
1485,13,45,5641.536,1,118,123
1486,13,46,4705.511,1,77,93
1487,13,47,6562.621,1,93,98
1488,13,48,5491.312,-1,63,45
1489,13,49,4989.419,1,114,123
1490,13,50,5587.143,-1,63,54
1491,13,51,5624.509,-1,121,123
1492,13,52,6289.553000000001,1,115,123
1493,13,53,4868.574000000001,1,54,63
1494,13,54,5237.417,-1,99,93
1495,13,55,5083.344,1,87,93
1496,13,56,5152.319,-1,107,93
1497,13,57,5295.773,-1,123,114
1498,13,58,5441.379,1,79,63
1499,13,59,6426.097,1,63,86
1500,13,60,5147.489000000001,1,98,93
1501,13,61,6903.816,1,123,128
1502,13,62,5571.482,-1,84,63
1503,13,63,4844.277,-1,93,79
1504,13,64,5286.754,1,63,75
1505,13,65,6952.101,1,79,93
1506,13,66,6356.3809999999985,1,63,79
1507,13,67,5737.051,1,93,107
1508,13,68,5265.026,-1,123,119
1509,13,69,5402.866999999998,-1,75,63
1510,13,70,4650.749,-1,123,121
1511,13,71,2940.232,1,63,84
1512,13,72,4932.683,-1,86,63
1513,13,73,5092.359,-1,63,68
1514,13,74,4935.015,-1,93,77
1515,13,75,5036.011,-1,93,87
1516,13,76,4137.873,-1,123,118
1517,13,77,5783.6330000000025,1,93,99
1518,13,78,4097.353,-1,128,123
1519,13,79,5039.556,1,104,93
1520,13,80,4714.41,-1,123,120
1521,13,81,5761.401999999999,1,123,133
1522,13,82,5739.5819999999985,1,93,85
1523,13,83,5124.3690000000015,1,58,63
1524,13,84,4688.827,-1,70,63
1525,13,85,5598.042,-1,83,93
1526,13,86,4835.5909999999985,1,93,101
1527,13,87,5643.044,1,80,93
1528,13,88,3939.683,-1,93,83
1529,13,89,5921.8809999999985,1,85,93
1530,13,90,6611.578,-1,93,103
1531,13,91,5733.983,-1,93,80
1532,13,92,5016.054,-1,91,93
1533,13,93,6418.795,1,123,132
1534,13,94,5317.248000000001,1,77,63
1535,13,95,6311.401,1,93,88
1536,13,96,3751.359,1,113,123
1537,13,97,4003.975,-1,132,123
1538,13,98,4861.518,1,63,77
1539,13,99,4678.906,1,101,93
1540,13,100,4940.484,1,124,123
1541,13,101,4362.497,-1,130,123
1542,13,102,5849.717,1,122,123
1543,13,103,4097.076,-1,61,63
1544,13,104,9022.497,-1,133,123
1545,13,105,6600.863,-1,123,122
1546,13,106,5722.523,1,88,93
1547,13,107,4758.612,-1,123,124
1548,13,108,6095.176,1,123,130
1549,13,109,4348.855,-1,93,91
1550,13,110,4764.225,-1,123,113
1551,13,111,5247.2959999999985,-1,120,123
1552,13,112,4770.371,1,51,63
1553,13,113,4668.312,-1,106,93
1554,13,114,4745.915,1,93,106
1555,13,115,4392.422000000001,1,103,93
1556,13,116,4845.4540000000015,-1,63,51
1557,13,117,5804.678000000001,1,63,58
1558,13,118,4870.245,-1,63,61
1559,13,119,5993.969,-1,63,70
1560,14,0,3324.308,-1,63,42
1561,14,1,4480.32,1,126,123
1562,14,2,2523.038,1,123,129
1563,14,3,2791.3390000000004,1,116,123
1564,14,4,6684.934,-1,131,123
1565,14,5,4055.65,-1,65,63
1566,14,6,3286.518,-1,95,93
1567,14,7,2964.972,1,63,81
1568,14,8,5929.486,-1,123,125
1569,14,9,1761.845,1,63,72
1570,14,10,1419.557,-1,127,123
1571,14,11,1643.956,-1,93,90
1572,14,12,1249.042,-1,123,117
1573,14,13,1372.969,-1,123,126
1574,14,14,2401.027,-1,63,49
1575,14,15,1245.098,-1,82,93
1576,14,16,1233.281,-1,109,93
1577,14,17,1342.216,-1,90,93
1578,14,18,1259.717,-1,72,63
1579,14,19,2073.05,1,117,123
1580,14,20,3773.646,1,123,131
1581,14,21,1497.685,-1,63,56
1582,14,22,2165.322,1,96,93
1583,14,23,1272.365,-1,93,82
1584,14,24,1367.841,-1,129,123
1585,14,25,2336.13,-1,123,116
1586,14,26,2073.203,1,123,127
1587,14,27,2271.048,1,63,65
1588,14,28,1945.156,1,40,63
1589,14,29,8341.024,1,42,63
1590,14,30,1665.83,1,47,63
1591,14,31,1219.089,-1,63,40
1592,14,32,1168.573,-1,63,47
1593,14,33,1321.304,-1,125,123
1594,14,34,1316.62,-1,93,96
1595,14,35,1399.691,-1,56,63
1596,14,36,2336.324,1,93,109
1597,14,37,1289.006,-1,93,95
1598,14,38,2602.567,1,49,63
1599,14,39,1337.46,-1,81,63
1600,14,40,3034.393,1,45,63
1601,14,41,1726.455,-1,123,115
1602,14,42,3010.505,-1,119,123
1603,14,43,3630.022,1,93,104
1604,14,44,10180.83,-1,68,63
1605,14,45,5383.8719999999985,1,118,123
1606,14,46,4386.3420000000015,-1,77,93
1607,14,47,7293.022,1,93,98
1608,14,48,2719.974,-1,63,45
1609,14,49,5170.8290000000015,1,114,123
1610,14,50,8635.108,-1,63,54
1611,14,51,5570.065,1,121,123
1612,14,52,3089.8390000000004,-1,115,123
1613,14,53,2183.526,1,54,63
1614,14,54,2594.473,-1,99,93
1615,14,55,3695.539,1,87,93
1616,14,56,3132.579,-1,107,93
1617,14,57,1289.7910000000004,-1,123,114
1618,14,58,5681.5769999999975,-1,79,63
1619,14,59,3496.864,1,63,86
1620,14,60,1519.027,-1,98,93
1621,14,61,4598.014,1,123,128
1622,14,62,2953.836,-1,84,63
1623,14,63,3660.782,-1,93,79
1624,14,64,6895.45,1,63,75
1625,14,65,2595.649,1,79,93
1626,14,66,2868.746,1,63,79
1627,14,67,3832.444,1,93,107
1628,14,68,2633.974,-1,123,119
1629,14,69,5024.522,-1,75,63
1630,14,70,1779.915,-1,123,121
1631,14,71,4224.099,1,63,84
1632,14,72,1386.497,-1,86,63
1633,14,73,4284.96,-1,63,68
1634,14,74,4919.425,-1,93,77
1635,14,75,4094.346,-1,93,87
1636,14,76,8258.419,-1,123,118
1637,14,77,6018.196999999999,-1,93,99
1638,14,78,4584.38,-1,128,123
1639,14,79,5677.403,-1,104,93
1640,14,80,4022.289,1,123,120
1641,14,81,3577.684,1,123,133
1642,14,82,2419.418,1,93,85
1643,14,83,2636.488,1,58,63
1644,14,84,1578.246,-1,70,63
1645,14,85,1717.583,1,83,93
1646,14,86,1695.674,1,93,101
1647,14,87,1706.779,1,80,93
1648,14,88,2530.383,-1,93,83
1649,14,89,1934.216,1,85,93
1650,14,90,1507.17,-1,93,103
1651,14,91,1112.674,-1,93,80
1652,14,92,1033.302,-1,91,93
1653,14,93,1911.303,1,123,132
1654,14,94,2970.806,-1,77,63
1655,14,95,3411.277,-1,93,88
1656,14,96,2324.178,1,113,123
1657,14,97,1555.319,-1,132,123
1658,14,98,1295.527,1,63,77
1659,14,99,1378.195,-1,101,93
1660,14,100,3603.538,1,124,123
1661,14,101,1417.078,-1,130,123
1662,14,102,1493.379,-1,122,123
1663,14,103,1204.389,-1,61,63
1664,14,104,1120.662,-1,133,123
1665,14,105,1066.639,1,123,122
1666,14,106,1047.298,-1,88,93
1667,14,107,1080.82,-1,123,124
1668,14,108,2406.61,-1,123,130
1669,14,109,1064.427,-1,93,91
1670,14,110,1104.734,-1,123,113
1671,14,111,1927.102,-1,120,123
1672,14,112,4370.941,1,51,63
1673,14,113,1375.695,-1,106,93
1674,14,114,1286.488,-1,93,106
1675,14,115,2458.285,-1,103,93
1676,14,116,3166.4190000000012,-1,63,51
1677,14,117,1586.569,-1,63,58
1678,14,118,2434.474,1,63,61
1679,14,119,1479.644,-1,63,70
1680,15,0,3213.057,-1,63,42
1681,15,1,1911.881,-1,126,123
1682,15,2,3329.31,1,123,129
1683,15,3,3117.9040000000005,-1,116,123
1684,15,4,2299.119,-1,131,123
1685,15,5,2421.203,-1,65,63
1686,15,6,4847.147,1,95,93
1687,15,7,5263.507,1,63,81
1688,15,8,2595.804,-1,123,125
1689,15,9,2951.027,1,63,72
1690,15,10,1781.246,-1,127,123
1691,15,11,2734.038,-1,93,90
1692,15,12,2200.877,-1,123,117
1693,15,13,2352.41,1,123,126
1694,15,14,3729.995,-1,63,49
1695,15,15,5162.3,1,82,93
1696,15,16,1931.223,-1,109,93
1697,15,17,6761.232,1,90,93
1698,15,18,2898.953,-1,72,63
1699,15,19,7102.359,-1,117,123
1700,15,20,3027.068,1,123,131
1701,15,21,3191.786,-1,63,56
1702,15,22,2312.661,-1,96,93
1703,15,23,1751.829,-1,93,82
1704,15,24,1885.989,-1,129,123
1705,15,25,1841.842,-1,123,116
1706,15,26,3151.2990000000004,1,123,127
1707,15,27,2884.3459999999995,1,63,65
1708,15,28,2756.411,1,40,63
1709,15,29,2296.337,1,42,63
1710,15,30,2620.081,-1,47,63
1711,15,31,3754.063,-1,63,40
1712,15,32,2232.07,-1,63,47
1713,15,33,4715.899,-1,125,123
1714,15,34,4339.1,-1,93,96
1715,15,35,4913.117,1,56,63
1716,15,36,3676.601,1,93,109
1717,15,37,5630.674,-1,93,95
1718,15,38,3010.181,1,49,63
1719,15,39,2233.943,-1,81,63
1720,15,40,2718.708,1,45,63
1721,15,41,1756.919,-1,123,115
1722,15,42,1910.429,-1,119,123
1723,15,43,1606.328,-1,93,104
1724,15,44,4621.395,1,68,63
1725,15,45,6781.861,1,118,123
1726,15,46,4229.285,-1,77,93
1727,15,47,3837.949,1,93,98
1728,15,48,1884.373,-1,63,45
1729,15,49,3025.372000000001,1,114,123
1730,15,50,1598.082,-1,63,54
1731,15,51,4371.913,1,121,123
1732,15,52,2226.644,1,115,123
1733,15,53,2362.153,1,54,63
1734,15,54,3672.313,-1,99,93
1735,15,55,3397.7140000000004,-1,87,93
1736,15,56,2572.407,-1,107,93
1737,15,57,1822.967,-1,123,114
1738,15,58,2926.668,-1,79,63
1739,15,59,3288.8990000000013,1,63,86
1740,15,60,1954.916,-1,98,93
1741,15,61,3543.855,1,123,128
1742,15,62,2000.4,-1,84,63
1743,15,63,1725.1470000000006,-1,93,79
1744,15,64,2511.125,1,63,75
1745,15,65,2649.541,1,79,93
1746,15,66,2566.174,1,63,79
1747,15,67,4575.964,1,93,107
1748,15,68,5647.967,-1,123,119
1749,15,69,3817.8,-1,75,63
1750,15,70,1913.333,-1,123,121
1751,15,71,2582.84,1,63,84
1752,15,72,2610.201,-1,86,63
1753,15,73,1888.47,1,63,68
1754,15,74,1708.715,-1,93,77
1755,15,75,2612.92,-1,93,87
1756,15,76,2526.137,1,123,118
1757,15,77,2436.881,1,93,99
1758,15,78,2371.353,-1,128,123
1759,15,79,1880.462,-1,104,93
1760,15,80,4807.99,1,123,120
1761,15,81,1529.044,1,123,133
1762,15,82,1627.6660000000006,-1,93,85
1763,15,83,2454.485,1,58,63
1764,15,84,1884.516,-1,70,63
1765,15,85,3335.151,1,83,93
1766,15,86,3638.464,-1,93,101
1767,15,87,4355.9,1,80,93
1768,15,88,3821.367,-1,93,83
1769,15,89,1757.382,1,85,93
1770,15,90,2452.173,1,93,103
1771,15,91,2488.712,-1,93,80
1772,15,92,3737.865,-1,91,93
1773,15,93,1937.901,-1,123,132
1774,15,94,1545.585,1,77,63
1775,15,95,1850.509,-1,93,88
1776,15,96,2344.205,1,113,123
1777,15,97,1751.0279999999998,-1,132,123
1778,15,98,5484.384,-1,63,77
1779,15,99,5401.733,-1,101,93
1780,15,100,2323.862,-1,124,123
1781,15,101,1736.275,-1,130,123
1782,15,102,2496.636,-1,122,123
1783,15,103,2643.958,-1,61,63
1784,15,104,1751.451,-1,133,123
1785,15,105,5616.222,1,123,122
1786,15,106,6900.5059999999985,1,88,93
1787,15,107,6086.955,-1,123,124
1788,15,108,5994.553000000001,1,123,130
1789,15,109,3866.99,1,93,91
1790,15,110,2893.133,-1,123,113
1791,15,111,1795.4260000000006,-1,120,123
1792,15,112,5605.866,-1,51,63
1793,15,113,1843.322,-1,106,93
1794,15,114,2435.599,1,93,106
1795,15,115,2240.474,-1,103,93
1796,15,116,2563.388,-1,63,51
1797,15,117,1991.946,-1,63,58
1798,15,118,4074.443,1,63,61
1799,15,119,1927.761,1,63,70
1800,16,0,5036.814,1,63,42
1801,16,1,6666.279,-1,126,123
1802,16,2,2896.882,-1,123,129
1803,16,3,4941.589,1,116,123
1804,16,4,3747.957,1,131,123
1805,16,5,7078.549,1,65,63
1806,16,6,8817.116,1,95,93
1807,16,7,1844.604,1,63,81
1808,16,8,6962.203,1,123,125
1809,16,9,2189.002,1,63,72
1810,16,10,1864.762,-1,127,123
1811,16,11,5642.773,1,93,90
1812,16,12,7938.654,-1,123,117
1813,16,13,1773.503,-1,123,126
1814,16,14,8362.72,-1,63,49
1815,16,15,4171.918,1,82,93
1816,16,16,6348.4230000000025,-1,109,93
1817,16,17,4260.96,-1,90,93
1818,16,18,3135.347,-1,72,63
1819,16,19,6903.403,1,117,123
1820,16,20,4110.928,-1,123,131
1821,16,21,4106.266,-1,63,56
1822,16,22,8227.724,1,96,93
1823,16,23,4491.226,-1,93,82
1824,16,24,2868.977000000001,-1,129,123
1825,16,25,3290.348,-1,123,116
1826,16,26,3626.132,-1,123,127
1827,16,27,6855.869000000002,1,63,65
1828,16,28,1653.6470000000006,1,40,63
1829,16,29,2228.77,1,42,63
1830,16,30,5596.932,1,47,63
1831,16,31,3126.533,-1,63,40
1832,16,32,2338.83,-1,63,47
1833,16,33,5193.959,-1,125,123
1834,16,34,1584.104,1,93,96
1835,16,35,1990.986,-1,56,63
1836,16,36,5000.792,-1,93,109
1837,16,37,6590.522,-1,93,95
1838,16,38,4521.86,1,49,63
1839,16,39,4227.98,-1,81,63
1840,16,40,2803.514,1,45,63
1841,16,41,2544.863,-1,123,115
1842,16,42,1861.787,1,119,123
1843,16,43,1488.12,1,93,104
1844,16,44,2691.067,1,68,63
1845,16,45,2097.914,1,118,123
1846,16,46,1489.775,1,77,93
1847,16,47,3101.53,-1,93,98
1848,16,48,1626.11,-1,63,45
1849,16,49,2510.29,1,114,123
1850,16,50,1714.624,-1,63,54
1851,16,51,3615.13,-1,121,123
1852,16,52,1902.783,1,115,123
1853,16,53,2407.591,1,54,63
1854,16,54,1659.011,-1,99,93
1855,16,55,1623.4779999999994,-1,87,93
1856,16,56,1791.695,-1,107,93
1857,16,57,1734.8570000000002,-1,123,114
1858,16,58,1758.39,-1,79,63
1859,16,59,2344.225,1,63,86
1860,16,60,2101.854,-1,98,93
1861,16,61,3114.9040000000005,1,123,128
1862,16,62,1732.851,-1,84,63
1863,16,63,2078.607,-1,93,79
1864,16,64,1734.678,-1,63,75
1865,16,65,2516.607,1,79,93
1866,16,66,2332.303,1,63,79
1867,16,67,3024.633,1,93,107
1868,16,68,4090.687,-1,123,119
1869,16,69,3128.631,-1,75,63
1870,16,70,2587.4210000000007,-1,123,121
1871,16,71,2383.534,1,63,84
1872,16,72,3422.2540000000013,-1,86,63
1873,16,73,3160.078,-1,63,68
1874,16,74,1962.005,-1,93,77
1875,16,75,1680.483,-1,93,87
1876,16,76,1656.122,-1,123,118
1877,16,77,2741.023,-1,93,99
1878,16,78,2959.108,-1,128,123
1879,16,79,1697.1429999999998,-1,104,93
1880,16,80,3733.765,-1,123,120
1881,16,81,1372.3570000000002,1,123,133
1882,16,82,1660.7910000000006,-1,93,85
1883,16,83,2780.666,1,58,63
1884,16,84,1638.734,-1,70,63
1885,16,85,2529.656,1,83,93
1886,16,86,3319.275,1,93,101
1887,16,87,1600.094,1,80,93
1888,16,88,2007.16,-1,93,83
1889,16,89,2217.586,-1,85,93
1890,16,90,2922.13,1,93,103
1891,16,91,2608.895,-1,93,80
1892,16,92,2210.489,1,91,93
1893,16,93,3039.761,1,123,132
1894,16,94,1541.849,-1,77,63
1895,16,95,2464.052,-1,93,88
1896,16,96,2385.439,1,113,123
1897,16,97,1751.336,-1,132,123
1898,16,98,3381.522,-1,63,77
1899,16,99,4947.916,-1,101,93
1900,16,100,3439.893,-1,124,123
1901,16,101,1827.288,-1,130,123
1902,16,102,4233.239000000001,-1,122,123
1903,16,103,3197.341,-1,61,63
1904,16,104,1839.566,-1,133,123
1905,16,105,1646.644,-1,123,122
1906,16,106,1821.897,-1,88,93
1907,16,107,3053.78,1,123,124
1908,16,108,2725.795,1,123,130
1909,16,109,1549.39,-1,93,91
1910,16,110,1413.255,-1,123,113
1911,16,111,2962.1290000000013,-1,120,123
1912,16,112,3921.2790000000014,1,51,63
1913,16,113,2808.397,-1,106,93
1914,16,114,2444.954,-1,93,106
1915,16,115,1661.744,1,103,93
1916,16,116,1944.174,-1,63,51
1917,16,117,4598.125,-1,63,58
1918,16,118,2324.459,-1,63,61
1919,16,119,2029.368,-1,63,70
1920,17,0,2444.521,-1,63,42
1921,17,1,4629.874,1,126,123
1922,17,2,6612.573,-1,123,129
1923,17,3,5829.472,1,116,123
1924,17,4,2945.771,-1,131,123
1925,17,5,7390.815,1,65,63
1926,17,6,3348.937,-1,95,93
1927,17,7,10930.143,1,63,81
1928,17,8,4471.189,-1,123,125
1929,17,9,3547.778,1,63,72
1930,17,10,2703.865,-1,127,123
1931,17,11,8335.483,-1,93,90
1932,17,12,8974.254,-1,123,117
1933,17,13,7330.768,-1,123,126
1934,17,14,3614.821,-1,63,49
1935,17,15,2288.655,1,82,93
1936,17,16,2827.265,-1,109,93
1937,17,17,5201.602,1,90,93
1938,17,18,4749.154,1,72,63
1939,17,19,7701.936,-1,117,123
1940,17,20,6227.031,1,123,131
1941,17,21,12798.777,1,63,56
1942,17,22,8515.495,-1,96,93
1943,17,23,4721.237,-1,93,82
1944,17,24,13318.478,-1,129,123
1945,17,25,12227.114,1,123,116
1946,17,26,10870.699,1,123,127
1947,17,27,5250.7069999999985,-1,63,65
1948,17,28,7656.267,1,40,63
1949,17,29,5846.14,1,42,63
1950,17,30,4033.852,1,47,63
1951,17,31,8756.368,-1,63,40
1952,17,32,13434.458,-1,63,47
1953,17,33,8655.99,1,125,123
1954,17,34,8542.576,1,93,96
1955,17,35,6812.149,-1,56,63
1956,17,36,2079.317,1,93,109
1957,17,37,12903.296,-1,93,95
1958,17,38,4904.169,1,49,63
1959,17,39,3006.6090000000013,-1,81,63
1960,17,40,5271.764,1,45,63
1961,17,41,4316.538,-1,123,115
1962,17,42,12920.204,1,119,123
1963,17,43,6095.05,1,93,104
1964,17,44,4053.583,-1,68,63
1965,17,45,3514.554,1,118,123
1966,17,46,12553.764,1,77,93
1967,17,47,8568.648000000001,-1,93,98
1968,17,48,8922.804,-1,63,45
1969,17,49,2577.67,1,114,123
1970,17,50,5706.84,1,63,54
1971,17,51,8982.118,-1,121,123
1972,17,52,16282.19,-1,115,123
1973,17,53,15123.462,1,54,63
1974,17,54,8323.117,1,99,93
1975,17,55,9225.887,-1,87,93
1976,17,56,3566.353,-1,107,93
1977,17,57,2282.687,-1,123,114
1978,17,58,4023.027,-1,79,63
1979,17,59,7287.878000000002,1,63,86
1980,17,60,14257.749,-1,98,93
1981,17,61,5033.45,1,123,128
1982,17,62,2468.377,-1,84,63
1983,17,63,3251.114,-1,93,79
1984,17,64,9190.952,-1,63,75
1985,17,65,3479.847,1,79,93
1986,17,66,7210.041999999998,-1,63,79
1987,17,67,6443.748000000001,1,93,107
1988,17,68,3443.126,-1,123,119
1989,17,69,3965.528,-1,75,63
1990,17,70,3753.102,1,123,121
1991,17,71,5763.0769999999975,1,63,84
1992,17,72,1628.609,-1,86,63
1993,17,73,10223.509,-1,63,68
1994,17,74,3848.055,-1,93,77
1995,17,75,7369.800999999998,-1,93,87
1996,17,76,9430.724,-1,123,118
1997,17,77,11885.698,1,93,99
1998,17,78,3495.468,1,128,123
1999,17,79,10982.379,-1,104,93
2000,17,80,6140.254,-1,123,120
2001,17,81,6970.968000000003,1,123,133
2002,17,82,3131.329,-1,93,85
2003,17,83,6617.151999999999,1,58,63
2004,17,84,3995.447,-1,70,63
2005,17,85,13947.518999999998,1,83,93
2006,17,86,13634.49,1,93,101
2007,17,87,4056.044,1,80,93
2008,17,88,2312.452,-1,93,83
2009,17,89,7872.835,-1,85,93
2010,17,90,11600.637,1,93,103
2011,17,91,3214.68,-1,93,80
2012,17,92,10573.491000000002,-1,91,93
2013,17,93,1503.495,1,123,132
2014,17,94,3768.844,-1,77,63
2015,17,95,11161.013,-1,93,88
2016,17,96,1612.697,1,113,123
2017,17,97,10174.789,-1,132,123
2018,17,98,3083.7070000000012,1,63,77
2019,17,99,2981.672,-1,101,93
2020,17,100,2556.866,1,124,123
2021,17,101,8286.367,-1,130,123
2022,17,102,14342.408,-1,122,123
2023,17,103,7255.014,1,61,63
2024,17,104,5220.749,-1,133,123
2025,17,105,13476.043,1,123,122
2026,17,106,13700.488,-1,88,93
2027,17,107,3857.125,1,123,124
2028,17,108,1733.65,1,123,130
2029,17,109,5214.45,-1,93,91
2030,17,110,5060.513,-1,123,113
2031,17,111,2134.451,1,120,123
2032,17,112,2692.9770000000008,1,51,63
2033,17,113,7441.111,-1,106,93
2034,17,114,9072.115,1,93,106
2035,17,115,1870.211,-1,103,93
2036,17,116,4735.279,-1,63,51
2037,17,117,3985.485,-1,63,58
2038,17,118,4554.13,-1,63,61
2039,17,119,3471.15,-1,63,70
2040,18,0,4023.951,-1,63,42
2041,18,1,5703.099,1,126,123
2042,18,2,4273.391,1,123,129
2043,18,3,5631.191,-1,116,123
2044,18,4,4558.732,-1,131,123
2045,18,5,8729.055,-1,65,63
2046,18,6,7565.496,-1,95,93
2047,18,7,5851.781999999997,1,63,81
2048,18,8,5886.2869999999975,-1,123,125
2049,18,9,5691.9209999999985,1,63,72
2050,18,10,8676.572,-1,127,123
2051,18,11,8534.586,-1,93,90
2052,18,12,5737.74,1,123,117
2053,18,13,7827.215999999998,-1,123,126
2054,18,14,6763.579000000002,-1,63,49
2055,18,15,9908.079,1,82,93
2056,18,16,7691.736,-1,109,93
2057,18,17,4923.352,1,90,93
2058,18,18,5201.37,-1,72,63
2059,18,19,5645.46,-1,117,123
2060,18,20,5919.066,1,123,131
2061,18,21,5664.624,-1,63,56
2062,18,22,6393.3669999999975,-1,96,93
2063,18,23,5747.181,-1,93,82
2064,18,24,8679.67,-1,129,123
2065,18,25,8494.314,-1,123,116
2066,18,26,7389.205,1,123,127
2067,18,27,10777.297,1,63,65
2068,18,28,4992.517,1,40,63
2069,18,29,5133.566,1,42,63
2070,18,30,3539.847,1,47,63
2071,18,31,5347.944,-1,63,40
2072,18,32,6035.228,-1,63,47
2073,18,33,8028.052,-1,125,123
2074,18,34,7310.241,-1,93,96
2075,18,35,6028.14,1,56,63
2076,18,36,5521.11,-1,93,109
2077,18,37,5207.763,-1,93,95
2078,18,38,6076.576,1,49,63
2079,18,39,4206.846,-1,81,63
2080,18,40,5208.7959999999985,1,45,63
2081,18,41,4426.965,-1,123,115
2082,18,42,4649.958,-1,119,123
2083,18,43,4222.268,1,93,104
2084,18,44,4089.141,1,68,63
2085,18,45,5405.467,1,118,123
2086,18,46,2681.7870000000007,1,77,93
2087,18,47,4838.84,1,93,98
2088,18,48,2908.0820000000012,-1,63,45
2089,18,49,4764.191,1,114,123
2090,18,50,6443.599,-1,63,54
2091,18,51,5246.056,1,121,123
2092,18,52,4727.949000000001,1,115,123
2093,18,53,5236.652,1,54,63
2094,18,54,3206.787000000001,-1,99,93
2095,18,55,6376.2019999999975,1,87,93
2096,18,56,4663.721,-1,107,93
2097,18,57,2647.401,-1,123,114
2098,18,58,6164.809,-1,79,63
2099,18,59,5970.937,1,63,86
2100,18,60,3411.939000000001,-1,98,93
2101,18,61,2627.966,1,123,128
2102,18,62,2841.398,-1,84,63
2103,18,63,3157.693,-1,93,79
2104,18,64,6867.889,1,63,75
2105,18,65,2251.285,1,79,93
2106,18,66,6441.0369999999975,1,63,79
2107,18,67,3046.216,1,93,107
2108,18,68,6263.325,-1,123,119
2109,18,69,3785.637,-1,75,63
2110,18,70,2733.086,1,123,121
2111,18,71,2549.217,1,63,84
2112,18,72,2723.61,-1,86,63
2113,18,73,7797.760999999998,-1,63,68
2114,18,74,2058.104,-1,93,77
2115,18,75,3299.447,-1,93,87
2116,18,76,7186.69,1,123,118
2117,18,77,4215.198,-1,93,99
2118,18,78,5900.3359999999975,-1,128,123
2119,18,79,2816.864,-1,104,93
2120,18,80,6017.063,1,123,120
2121,18,81,2575.931,1,123,133
2122,18,82,2723.84,-1,93,85
2123,18,83,5661.448,-1,58,63
2124,18,84,5683.16,-1,70,63
2125,18,85,5453.071,-1,83,93
2126,18,86,8881.82,1,93,101
2127,18,87,2949.378,1,80,93
2128,18,88,4752.435,-1,93,83
2129,18,89,3419.387,1,85,93
2130,18,90,3879.152,1,93,103
2131,18,91,8826.808,-1,93,80
2132,18,92,3863.504,1,91,93
2133,18,93,5034.392,-1,123,132
2134,18,94,6175.267,-1,77,63
2135,18,95,4978.406,-1,93,88
2136,18,96,4372.513,1,113,123
2137,18,97,4613.582,-1,132,123
2138,18,98,2679.603,1,63,77
2139,18,99,3975.951,-1,101,93
2140,18,100,4491.585999999998,-1,124,123
2141,18,101,4356.596,-1,130,123
2142,18,102,6134.14,-1,122,123
2143,18,103,4599.457,1,61,63
2144,18,104,3430.558,-1,133,123
2145,18,105,8016.204000000002,-1,123,122
2146,18,106,5871.4919999999975,1,88,93
2147,18,107,4372.459,1,123,124
2148,18,108,3623.74,1,123,130
2149,18,109,6436.606,-1,93,91
2150,18,110,2586.793,-1,123,113
2151,18,111,3935.492,-1,120,123
2152,18,112,3661.471,1,51,63
2153,18,113,3447.305,-1,106,93
2154,18,114,6868.153,1,93,106
2155,18,115,3567.491,-1,103,93
2156,18,116,1691.779,1,63,51
2157,18,117,2812.001,-1,63,58
2158,18,118,3308.412000000001,-1,63,61
2159,18,119,4751.335,1,63,70
2160,19,0,5250.488,-1,63,42
2161,19,1,1981.468,-1,126,123
2162,19,2,5031.873,-1,123,129
2163,19,3,6773.9,1,116,123
2164,19,4,3211.765,-1,131,123
2165,19,5,2708.039,-1,65,63
2166,19,6,3911.197,-1,95,93
2167,19,7,3129.698,1,63,81
2168,19,8,2607.471,-1,123,125
2169,19,9,3674.246,1,63,72
2170,19,10,2795.76,-1,127,123
2171,19,11,3918.31,-1,93,90
2172,19,12,2001.567,-1,123,117
2173,19,13,3428.448,-1,123,126
2174,19,14,1862.359,-1,63,49
2175,19,15,3863.608,-1,82,93
2176,19,16,5607.161,-1,109,93
2177,19,17,7464.361999999999,-1,90,93
2178,19,18,5934.56,-1,72,63
2179,19,19,4244.22,-1,117,123
2180,19,20,3393.821,1,123,131
2181,19,21,4506.252,-1,63,56
2182,19,22,6678.861,-1,96,93
2183,19,23,4279.275,-1,93,82
2184,19,24,2231.603,-1,129,123
2185,19,25,3026.398,-1,123,116
2186,19,26,4290.022,1,123,127
2187,19,27,6269.315,1,63,65
2188,19,28,3411.278,1,40,63
2189,19,29,4039.778,1,42,63
2190,19,30,4837.984,1,47,63
2191,19,31,2340.152,-1,63,40
2192,19,32,2047.578,-1,63,47
2193,19,33,2577.729,-1,125,123
2194,19,34,3224.245,1,93,96
2195,19,35,2181.192,-1,56,63
2196,19,36,3352.925,1,93,109
2197,19,37,3536.414,-1,93,95
2198,19,38,6068.604,-1,49,63
2199,19,39,3674.74,-1,81,63
2200,19,40,6718.911,1,45,63
2201,19,41,1726.19,-1,123,115
2202,19,42,2436.73,-1,119,123
2203,19,43,1861.533,-1,93,104
2204,19,44,2405.278,-1,68,63
2205,19,45,1832.501,-1,118,123
2206,19,46,2390.579,-1,77,93
2207,19,47,1867.803,-1,93,98
2208,19,48,1857.648,-1,63,45
2209,19,49,5911.941999999999,1,114,123
2210,19,50,6027.022,-1,63,54
2211,19,51,3998.225,-1,121,123
2212,19,52,3395.021,-1,115,123
2213,19,53,5094.321,-1,54,63
2214,19,54,3976.193,-1,99,93
2215,19,55,2346.636,-1,87,93
2216,19,56,1985.611,-1,107,93
2217,19,57,10616.105,-1,123,114
2218,19,58,3424.41,-1,79,63
2219,19,59,4641.089,1,63,86
2220,19,60,2079.65,-1,98,93
2221,19,61,5748.041,1,123,128
2222,19,62,2637.771,-1,84,63
2223,19,63,2630.658,-1,93,79
2224,19,64,5044.573,1,63,75
2225,19,65,5757.9659999999985,-1,79,93
2226,19,66,2029.046,1,63,79
2227,19,67,5845.337,-1,93,107
2228,19,68,11578.54,-1,123,119
2229,19,69,2576.067,-1,75,63
2230,19,70,3327.818,-1,123,121
2231,19,71,2789.167,1,63,84
2232,19,72,2646.031,-1,86,63
2233,19,73,1783.19,-1,63,68
2234,19,74,1689.115,-1,93,77
2235,19,75,2818.893,1,93,87
2236,19,76,2723.774000000001,-1,123,118
2237,19,77,2757.361,-1,93,99
2238,19,78,1913.764,-1,128,123
2239,19,79,1948.715,-1,104,93
2240,19,80,3952.368,-1,123,120
2241,19,81,1830.854,-1,123,133
2242,19,82,6182.783,-1,93,85
2243,19,83,1856.125,-1,58,63
2244,19,84,2229.554,-1,70,63
2245,19,85,3008.253,1,83,93
2246,19,86,2037.898,-1,93,101
2247,19,87,3785.298,1,80,93
2248,19,88,2218.548,-1,93,83
2249,19,89,1848.757,-1,85,93
2250,19,90,2857.418,1,93,103
2251,19,91,1687.5839999999994,-1,93,80
2252,19,92,2839.998,1,91,93
2253,19,93,2783.62,1,123,132
2254,19,94,2484.105,-1,77,63
2255,19,95,5557.585,-1,93,88
2256,19,96,2378.669,-1,113,123
2257,19,97,2282.908,-1,132,123
2258,19,98,1793.275,-1,63,77
2259,19,99,1625.402,-1,101,93
2260,19,100,3139.988,-1,124,123
2261,19,101,2142.799,-1,130,123
2262,19,102,2098.373,-1,122,123
2263,19,103,1648.974,-1,61,63
2264,19,104,1655.8,-1,133,123
2265,19,105,1556.447,-1,123,122
2266,19,106,1820.525,-1,88,93
2267,19,107,1524.9260000000006,-1,123,124
2268,19,108,1508.1270000000006,-1,123,130
2269,19,109,1634.5220000000006,-1,93,91
2270,19,110,2090.5,-1,123,113
2271,19,111,2216.038,-1,120,123
2272,19,112,1694.099,-1,51,63
2273,19,113,1569.817,-1,106,93
2274,19,114,2873.241,1,93,106
2275,19,115,1660.14,-1,103,93
2276,19,116,5719.129,-1,63,51
2277,19,117,2061.6710000000007,-1,63,58
2278,19,118,2244.51,-1,63,61
2279,19,119,1632.625,-1,63,70
2280,20,0,4015.55,-1,63,42
2281,20,1,7637.121,-1,126,123
2282,20,2,16415.783,1,123,129
2283,20,3,10304.574,-1,116,123
2284,20,4,2612.929,-1,131,123
2285,20,5,15358.073,1,65,63
2286,20,6,2269.503,-1,95,93
2287,20,7,9017.939,1,63,81
2288,20,8,8244.176,-1,123,125
2289,20,9,3843.263,1,63,72
2290,20,10,1992.862,-1,127,123
2291,20,11,2174.961,-1,93,90
2292,20,12,1999.148,-1,123,117
2293,20,13,5489.294,1,123,126
2294,20,14,2903.708,-1,63,49
2295,20,15,2567.135,-1,82,93
2296,20,16,1695.776,-1,109,93
2297,20,17,1742.1029999999994,-1,90,93
2298,20,18,4612.399,-1,72,63
2299,20,19,13327.15,-1,117,123
2300,20,20,2056.19,-1,123,131
2301,20,21,2489.7470000000008,-1,63,56
2302,20,22,1697.034,-1,96,93
2303,20,23,1307.224,-1,93,82
2304,20,24,4163.257000000001,-1,129,123
2305,20,25,1602.711,-1,123,116
2306,20,26,2004.477,-1,123,127
2307,20,27,6172.7159999999985,-1,63,65
2308,20,28,3332.7,1,40,63
2309,20,29,3759.427,1,42,63
2310,20,30,8489.855,1,47,63
2311,20,31,1852.57,-1,63,40
2312,20,32,4752.365,-1,63,47
2313,20,33,2084.81,-1,125,123
2314,20,34,1728.6270000000006,-1,93,96
2315,20,35,3484.634,1,56,63
2316,20,36,2587.182,-1,93,109
2317,20,37,1938.383,-1,93,95
2318,20,38,2779.519,1,49,63
2319,20,39,2253.028,-1,81,63
2320,20,40,3124.094,1,45,63
2321,20,41,1254.202,-1,123,115
2322,20,42,3193.128,1,119,123
2323,20,43,4459.433,1,93,104
2324,20,44,4051.674,1,68,63
2325,20,45,6400.453,1,118,123
2326,20,46,3182.051,1,77,93
2327,20,47,4598.638,1,93,98
2328,20,48,3294.045,1,63,45
2329,20,49,6806.852,1,114,123
2330,20,50,3292.094,1,63,54
2331,20,51,6791.02,1,121,123
2332,20,52,3599.396,1,115,123
2333,20,53,3967.937,1,54,63
2334,20,54,2689.5,-1,99,93
2335,20,55,2853.552,1,87,93
2336,20,56,3136.9040000000005,-1,107,93
2337,20,57,1642.807,-1,123,114
2338,20,58,2324.876,-1,79,63
2339,20,59,3933.011,1,63,86
2340,20,60,1878.314,-1,98,93
2341,20,61,4850.387,1,123,128
2342,20,62,2801.713,-1,84,63
2343,20,63,3720.082,-1,93,79
2344,20,64,4276.25,1,63,75
2345,20,65,3891.52,1,79,93
2346,20,66,4596.197,1,63,79
2347,20,67,3366.531,1,93,107
2348,20,68,2127.998,-1,123,119
2349,20,69,5089.17,-1,75,63
2350,20,70,4300.453,-1,123,121
2351,20,71,4097.556,1,63,84
2352,20,72,4457.96,-1,86,63
2353,20,73,8144.823,1,63,68
2354,20,74,1909.219,-1,93,77
2355,20,75,4475.399,-1,93,87
2356,20,76,1875.828,-1,123,118
2357,20,77,3845.49,1,93,99
2358,20,78,6433.939,1,128,123
2359,20,79,3046.212,-1,104,93
2360,20,80,3193.177,1,123,120
2361,20,81,4568.54,-1,123,133
2362,20,82,2149.355,-1,93,85
2363,20,83,3421.588,1,58,63
2364,20,84,1821.59,-1,70,63
2365,20,85,1493.02,-1,83,93
2366,20,86,1677.622,1,93,101
2367,20,87,2038.466,-1,80,93
2368,20,88,1666.171,-1,93,83
2369,20,89,1792.346,-1,85,93
2370,20,90,1698.057,-1,93,103
2371,20,91,1938.372,-1,93,80
2372,20,92,1712.332,-1,91,93
2373,20,93,1719.9489999999994,1,123,132
2374,20,94,2345.002,-1,77,63
2375,20,95,1547.602,-1,93,88
2376,20,96,5882.052,-1,113,123
2377,20,97,1820.025,-1,132,123
2378,20,98,5016.392,1,63,77
2379,20,99,1697.219,-1,101,93
2380,20,100,1449.739,-1,124,123
2381,20,101,1712.516,-1,130,123
2382,20,102,7505.361,1,122,123
2383,20,103,2245.645,-1,61,63
2384,20,104,1769.582,-1,133,123
2385,20,105,5769.417,-1,123,122
2386,20,106,4935.254,1,88,93
2387,20,107,3703.142,-1,123,124
2388,20,108,3141.223,1,123,130
2389,20,109,2066.702,-1,93,91
2390,20,110,1497.401,-1,123,113
2391,20,111,4243.157,1,120,123
2392,20,112,2831.132,1,51,63
2393,20,113,1711.9129999999998,-1,106,93
2394,20,114,1567.025,-1,93,106
2395,20,115,3318.729000000001,1,103,93
2396,20,116,2173.874,-1,63,51
2397,20,117,3151.892000000001,1,63,58
2398,20,118,1719.667,-1,63,61
2399,20,119,2800.157,1,63,70
2400,21,0,4788.804,-1,63,42
2401,21,1,3062.615,-1,126,123
2402,21,2,2814.627,1,123,129
2403,21,3,3524.661,1,116,123
2404,21,4,1745.811,-1,131,123
2405,21,5,5618.6309999999985,1,65,63
2406,21,6,3599.037000000001,-1,95,93
2407,21,7,3127.3320000000012,1,63,81
2408,21,8,6084.625,1,123,125
2409,21,9,4577.884,1,63,72
2410,21,10,1707.37,-1,127,123
2411,21,11,4552.962,1,93,90
2412,21,12,1743.274,-1,123,117
2413,21,13,3854.483,-1,123,126
2414,21,14,4319.938,-1,63,49
2415,21,15,4980.693,1,82,93
2416,21,16,3518.896,-1,109,93
2417,21,17,2390.111,-1,90,93
2418,21,18,1910.192,-1,72,63
2419,21,19,4397.571,-1,117,123
2420,21,20,2894.042,1,123,131
2421,21,21,7190.021,-1,63,56
2422,21,22,3078.663,1,96,93
2423,21,23,2594.918,-1,93,82
2424,21,24,2040.314,-1,129,123
2425,21,25,1951.661,-1,123,116
2426,21,26,4415.8409999999985,1,123,127
2427,21,27,6751.343000000003,-1,63,65
2428,21,28,4986.175,-1,40,63
2429,21,29,4287.637,1,42,63
2430,21,30,6453.49,1,47,63
2431,21,31,2378.002,-1,63,40
2432,21,32,2991.77,-1,63,47
2433,21,33,8537.773000000001,1,125,123
2434,21,34,2556.424,-1,93,96
2435,21,35,4994.751,1,56,63
2436,21,36,5806.8319999999985,1,93,109
2437,21,37,4867.023,-1,93,95
2438,21,38,4425.743,1,49,63
2439,21,39,3045.637,-1,81,63
2440,21,40,2259.005,1,45,63
2441,21,41,2876.09,-1,123,115
2442,21,42,3792.186,1,119,123
2443,21,43,4953.383,1,93,104
2444,21,44,6086.174,-1,68,63
2445,21,45,1853.876,-1,118,123
2446,21,46,6288.181,1,77,93
2447,21,47,5492.658,1,93,98
2448,21,48,5079.273,-1,63,45
2449,21,49,7720.113,1,114,123
2450,21,50,2067.515,-1,63,54
2451,21,51,3373.466,-1,121,123
2452,21,52,4757.763,1,115,123
2453,21,53,2216.41,1,54,63
2454,21,54,8953.306999999999,-1,99,93
2455,21,55,5655.27,-1,87,93
2456,21,56,1800.5970000000002,-1,107,93
2457,21,57,1809.005,-1,123,114
2458,21,58,6087.993,-1,79,63
2459,21,59,2367.676,1,63,86
2460,21,60,4641.306,-1,98,93
2461,21,61,5208.175,1,123,128
2462,21,62,3285.998,-1,84,63
2463,21,63,1911.852,-1,93,79
2464,21,64,4350.2,1,63,75
2465,21,65,4407.332,1,79,93
2466,21,66,7101.501,1,63,79
2467,21,67,3596.618,1,93,107
2468,21,68,3515.558,-1,123,119
2469,21,69,4197.757000000001,-1,75,63
2470,21,70,6221.123000000001,-1,123,121
2471,21,71,5153.19,1,63,84
2472,21,72,2283.474,-1,86,63
2473,21,73,6055.583000000001,1,63,68
2474,21,74,1957.349,-1,93,77
2475,21,75,3033.6,-1,93,87
2476,21,76,3853.18,-1,123,118
2477,21,77,2868.1290000000013,1,93,99
2478,21,78,3188.486,-1,128,123
2479,21,79,1792.1029999999994,-1,104,93
2480,21,80,3194.8790000000013,-1,123,120
2481,21,81,2147.085,1,123,133
2482,21,82,5070.572,-1,93,85
2483,21,83,5417.065,-1,58,63
2484,21,84,3136.4640000000004,-1,70,63
2485,21,85,5386.943,1,83,93
2486,21,86,7266.773,1,93,101
2487,21,87,2320.345,1,80,93
2488,21,88,2738.326,-1,93,83
2489,21,89,3743.0,1,85,93
2490,21,90,6684.261,-1,93,103
2491,21,91,5069.082,-1,93,80
2492,21,92,4317.218,-1,91,93
2493,21,93,2187.661,1,123,132
2494,21,94,1780.706,-1,77,63
2495,21,95,4697.693,-1,93,88
2496,21,96,4615.715,1,113,123
2497,21,97,3213.238,-1,132,123
2498,21,98,7377.465999999998,-1,63,77
2499,21,99,3176.483,-1,101,93
2500,21,100,3459.488,1,124,123
2501,21,101,2485.027,-1,130,123
2502,21,102,4340.71,-1,122,123
2503,21,103,2234.861,1,61,63
2504,21,104,1765.2620000000006,-1,133,123
2505,21,105,2333.864,-1,123,122
2506,21,106,3397.47,-1,88,93
2507,21,107,5579.569,1,123,124
2508,21,108,2468.565,1,123,130
2509,21,109,3862.368,-1,93,91
2510,21,110,4770.802,-1,123,113
2511,21,111,6413.825,-1,120,123
2512,21,112,3994.448,1,51,63
2513,21,113,1734.304,-1,106,93
2514,21,114,4647.243,1,93,106
2515,21,115,2337.373,-1,103,93
2516,21,116,2315.217,1,63,51
2517,21,117,3295.675,-1,63,58
2518,21,118,3930.609,-1,63,61
2519,21,119,4819.176,-1,63,70
2520,22,0,2639.121,-1,63,42
2521,22,1,3490.418,1,126,123
2522,22,2,3392.99,1,123,129
2523,22,3,2362.167,1,116,123
2524,22,4,7480.396,-1,131,123
2525,22,5,4304.928,-1,65,63
2526,22,6,1333.4129999999998,-1,95,93
2527,22,7,1699.346,1,63,81
2528,22,8,1330.119,-1,123,125
2529,22,9,1991.938,1,63,72
2530,22,10,2734.698,-1,127,123
2531,22,11,5612.598000000001,-1,93,90
2532,22,12,3874.569,1,123,117
2533,22,13,5428.564,1,123,126
2534,22,14,2538.829,-1,63,49
2535,22,15,3955.248,-1,82,93
2536,22,16,2049.666,-1,109,93
2537,22,17,5041.603,1,90,93
2538,22,18,7011.989000000001,1,72,63
2539,22,19,3595.792,-1,117,123
2540,22,20,3932.313,-1,123,131
2541,22,21,2984.226,-1,63,56
2542,22,22,8796.809000000001,-1,96,93
2543,22,23,3577.746,-1,93,82
2544,22,24,3110.577,-1,129,123
2545,22,25,3619.106,-1,123,116
2546,22,26,3170.632,-1,123,127
2547,22,27,8489.945,-1,63,65
2548,22,28,5555.579000000002,-1,40,63
2549,22,29,4811.767,1,42,63
2550,22,30,5486.553000000001,1,47,63
2551,22,31,3947.918,-1,63,40
2552,22,32,3060.958,-1,63,47
2553,22,33,3290.588,-1,125,123
2554,22,34,4984.029,-1,93,96
2555,22,35,2396.927,-1,56,63
2556,22,36,3058.8459999999995,-1,93,109
2557,22,37,1775.493,1,93,95
2558,22,38,1901.146,1,49,63
2559,22,39,4069.328,-1,81,63
2560,22,40,2543.718,1,45,63
2561,22,41,1651.329,-1,123,115
2562,22,42,2720.7140000000004,-1,119,123
2563,22,43,2237.718,1,93,104
2564,22,44,5937.8719999999985,-1,68,63
2565,22,45,2074.664,1,118,123
2566,22,46,1913.437,1,77,93
2567,22,47,6025.029,1,93,98
2568,22,48,5861.154,-1,63,45
2569,22,49,3053.9240000000004,1,114,123
2570,22,50,5750.981,-1,63,54
2571,22,51,2896.543,-1,121,123
2572,22,52,5574.571,-1,115,123
2573,22,53,5610.303000000001,1,54,63
2574,22,54,5096.788,1,99,93
2575,22,55,7124.988,1,87,93
2576,22,56,1886.034,-1,107,93
2577,22,57,2175.385,-1,123,114
2578,22,58,2161.453,-1,79,63
2579,22,59,1779.399,1,63,86
2580,22,60,2200.476,1,98,93
2581,22,61,5176.143,-1,123,128
2582,22,62,6800.015,1,84,63
2583,22,63,3217.962,-1,93,79
2584,22,64,2795.17,1,63,75
2585,22,65,2123.109,1,79,93
2586,22,66,5400.809,1,63,79
2587,22,67,3092.476,1,93,107
2588,22,68,4144.597,-1,123,119
2589,22,69,3872.583,-1,75,63
2590,22,70,2245.704,1,123,121
2591,22,71,1405.35,1,63,84
2592,22,72,3152.69,-1,86,63
2593,22,73,2129.347,1,63,68
2594,22,74,1228.1989999999996,-1,93,77
2595,22,75,1741.894,-1,93,87
2596,22,76,1512.257,-1,123,118
2597,22,77,6271.58,-1,93,99
2598,22,78,1090.217,-1,128,123
2599,22,79,1642.316,-1,104,93
2600,22,80,2969.908,-1,123,120
2601,22,81,1796.985,1,123,133
2602,22,82,1501.604,1,93,85
2603,22,83,2535.906,-1,58,63
2604,22,84,1280.104,-1,70,63
2605,22,85,4045.242,-1,83,93
2606,22,86,1617.313,1,93,101
2607,22,87,2319.141,1,80,93
2608,22,88,1172.646,-1,93,83
2609,22,89,2566.249,1,85,93
2610,22,90,2048.014,1,93,103
2611,22,91,1116.105,-1,93,80
2612,22,92,8926.948,1,91,93
2613,22,93,2706.309,-1,123,132
2614,22,94,2411.239,1,77,63
2615,22,95,2289.552,1,93,88
2616,22,96,1407.2120000000002,-1,113,123
2617,22,97,1720.936,-1,132,123
2618,22,98,1866.761,1,63,77
2619,22,99,2287.665,1,101,93
2620,22,100,1332.571,-1,124,123
2621,22,101,2202.458,-1,130,123
2622,22,102,2878.683,-1,122,123
2623,22,103,4337.983,1,61,63
2624,22,104,2690.521,-1,133,123
2625,22,105,1693.509,-1,123,122
2626,22,106,2313.065,-1,88,93
2627,22,107,1600.281,1,123,124
2628,22,108,1107.641,1,123,130
2629,22,109,1590.669,-1,93,91
2630,22,110,2748.301,-1,123,113
2631,22,111,3963.145,-1,120,123
2632,22,112,1594.602,-1,51,63
2633,22,113,5893.361999999999,-1,106,93
2634,22,114,1303.528,-1,93,106
2635,22,115,1108.254,-1,103,93
2636,22,116,1507.767,-1,63,51
2637,22,117,4422.5909999999985,1,63,58
2638,22,118,5432.37,-1,63,61
2639,22,119,2910.324,1,63,70
2640,23,0,5204.121,-1,63,42
2641,23,1,3055.181,-1,126,123
2642,23,2,1742.2120000000002,-1,123,129
2643,23,3,5583.058000000001,-1,116,123
2644,23,4,1630.8239999999994,-1,131,123
2645,23,5,5647.9609999999975,-1,65,63
2646,23,6,10036.347,-1,95,93
2647,23,7,2986.934,1,63,81
2648,23,8,3674.966,-1,123,125
2649,23,9,9208.107,1,63,72
2650,23,10,1972.588,-1,127,123
2651,23,11,4958.179,-1,93,90
2652,23,12,7160.8359999999975,1,123,117
2653,23,13,5275.58,1,123,126
2654,23,14,3053.825,-1,63,49
2655,23,15,11543.973999999998,-1,82,93
2656,23,16,1875.935,-1,109,93
2657,23,17,6832.351,-1,90,93
2658,23,18,3361.985,-1,72,63
2659,23,19,3958.387,1,117,123
2660,23,20,7594.009,-1,123,131
2661,23,21,9315.865,-1,63,56
2662,23,22,1826.872,-1,96,93
2663,23,23,2063.828,1,93,82
2664,23,24,4442.518,-1,129,123
2665,23,25,6184.954000000002,1,123,116
2666,23,26,5219.459,1,123,127
2667,23,27,4985.085999999998,-1,63,65
2668,23,28,6102.594,1,40,63
2669,23,29,5591.604,1,42,63
2670,23,30,10455.844,-1,47,63
2671,23,31,2717.282,-1,63,40
2672,23,32,4991.945,-1,63,47
2673,23,33,4295.051,-1,125,123
2674,23,34,7051.3830000000025,-1,93,96
2675,23,35,7789.693,1,56,63
2676,23,36,3845.165,1,93,109
2677,23,37,3622.884,1,93,95
2678,23,38,8778.517,1,49,63
2679,23,39,3919.144,-1,81,63
2680,23,40,5203.747,-1,45,63
2681,23,41,12041.247,-1,123,115
2682,23,42,4817.539000000002,-1,119,123
2683,23,43,3252.75,1,93,104
2684,23,44,5834.547,1,68,63
2685,23,45,3037.466,-1,118,123
2686,23,46,2475.963,1,77,93
2687,23,47,6641.422,1,93,98
2688,23,48,3295.507,-1,63,45
2689,23,49,2693.041,1,114,123
2690,23,50,4536.877,-1,63,54
2691,23,51,4190.215,-1,121,123
2692,23,52,2792.557,1,115,123
2693,23,53,1678.9779999999994,-1,54,63
2694,23,54,4975.688,1,99,93
2695,23,55,4649.152,1,87,93
2696,23,56,3011.4190000000012,-1,107,93
2697,23,57,2162.661,-1,123,114
2698,23,58,1892.987,-1,79,63
2699,23,59,3277.054,1,63,86
2700,23,60,1947.047,-1,98,93
2701,23,61,4248.472,1,123,128
2702,23,62,7842.359,-1,84,63
2703,23,63,5183.759,-1,93,79
2704,23,64,5946.455,1,63,75
2705,23,65,5577.324000000001,1,79,93
2706,23,66,4187.894,1,63,79
2707,23,67,2364.475,1,93,107
2708,23,68,2721.9970000000008,-1,123,119
2709,23,69,3528.017000000001,-1,75,63
2710,23,70,3819.64,1,123,121
2711,23,71,6035.808000000001,1,63,84
2712,23,72,1583.491,-1,86,63
2713,23,73,4636.445,1,63,68
2714,23,74,4978.054,-1,93,77
2715,23,75,5937.286,1,93,87
2716,23,76,4285.335,1,123,118
2717,23,77,2874.753,-1,93,99
2718,23,78,2423.803,-1,128,123
2719,23,79,2091.791,-1,104,93
2720,23,80,4417.729,1,123,120
2721,23,81,1847.285,1,123,133
2722,23,82,4153.333,-1,93,85
2723,23,83,5662.976,1,58,63
2724,23,84,3128.357,-1,70,63
2725,23,85,3775.908,1,83,93
2726,23,86,7483.732,1,93,101
2727,23,87,3086.677,-1,80,93
2728,23,88,2724.531,-1,93,83
2729,23,89,14799.597,1,85,93
2730,23,90,4785.198,-1,93,103
2731,23,91,4683.189,-1,93,80
2732,23,92,1716.5,-1,91,93
2733,23,93,3201.775,1,123,132
2734,23,94,6216.3319999999985,-1,77,63
2735,23,95,10104.012,1,93,88
2736,23,96,2600.535,1,113,123
2737,23,97,1775.276,-1,132,123
2738,23,98,2897.693,1,63,77
2739,23,99,3046.368,-1,101,93
2740,23,100,3664.812,1,124,123
2741,23,101,6023.569,-1,130,123
2742,23,102,2116.203,1,122,123
2743,23,103,6664.439,1,61,63
2744,23,104,1934.764,-1,133,123
2745,23,105,2015.064,1,123,122
2746,23,106,1914.668,-1,88,93
2747,23,107,3160.426,-1,123,124
2748,23,108,6760.503000000002,1,123,130
2749,23,109,3184.7140000000004,-1,93,91
2750,23,110,3722.876,-1,123,113
2751,23,111,8232.712,-1,120,123
2752,23,112,4782.786,1,51,63
2753,23,113,8870.76,-1,106,93
2754,23,114,4927.35,1,93,106
2755,23,115,4936.844,-1,103,93
2756,23,116,4823.197,1,63,51
2757,23,117,2973.842,-1,63,58
2758,23,118,5737.8,-1,63,61
2759,23,119,4140.13,1,63,70
2760,24,0,3575.375,-1,63,42
2761,24,1,5646.496,-1,126,123
2762,24,2,3149.933,1,123,129
2763,24,3,5463.962,1,116,123
2764,24,4,2460.966,-1,131,123
2765,24,5,5548.303000000001,-1,65,63
2766,24,6,4746.828,-1,95,93
2767,24,7,3859.959,1,63,81
2768,24,8,2762.601,1,123,125
2769,24,9,7154.855,1,63,72
2770,24,10,2105.4410000000007,-1,127,123
2771,24,11,3839.659,-1,93,90
2772,24,12,2483.443,-1,123,117
2773,24,13,6981.949000000001,-1,123,126
2774,24,14,7100.686,-1,63,49
2775,24,15,5496.885,-1,82,93
2776,24,16,3532.508,-1,109,93
2777,24,17,2654.093,-1,90,93
2778,24,18,4357.117,-1,72,63
2779,24,19,3053.903,-1,117,123
2780,24,20,4775.43,1,123,131
2781,24,21,7036.495,-1,63,56
2782,24,22,6367.5769999999975,-1,96,93
2783,24,23,4314.791,-1,93,82
2784,24,24,2763.048,-1,129,123
2785,24,25,4439.563,-1,123,116
2786,24,26,2591.437,-1,123,127
2787,24,27,3184.3320000000012,-1,63,65
2788,24,28,2982.3990000000013,1,40,63
2789,24,29,4431.708,-1,42,63
2790,24,30,2305.433,1,47,63
2791,24,31,5890.691999999999,-1,63,40
2792,24,32,2753.98,-1,63,47
2793,24,33,1711.785,-1,125,123
2794,24,34,5420.205,-1,93,96
2795,24,35,2595.165,-1,56,63
2796,24,36,3789.701,1,93,109
2797,24,37,5070.969,-1,93,95
2798,24,38,2740.984000000001,-1,49,63
2799,24,39,2481.574,-1,81,63
2800,24,40,2367.847,1,45,63
2801,24,41,4291.221,-1,123,115
2802,24,42,2944.6690000000012,-1,119,123
2803,24,43,5680.878000000002,1,93,104
2804,24,44,7102.719,-1,68,63
2805,24,45,2670.7209999999995,-1,118,123
2806,24,46,5302.469,1,77,93
2807,24,47,2602.201,-1,93,98
2808,24,48,1755.29,-1,63,45
2809,24,49,3723.259,1,114,123
2810,24,50,2463.204,-1,63,54
2811,24,51,3398.064000000001,-1,121,123
2812,24,52,5685.2580000000025,-1,115,123
2813,24,53,4908.208,-1,54,63
2814,24,54,7472.473000000001,-1,99,93
2815,24,55,10282.178,1,87,93
2816,24,56,3187.171,-1,107,93
2817,24,57,2787.333,-1,123,114
2818,24,58,4138.277,-1,79,63
2819,24,59,2225.688,1,63,86
2820,24,60,5286.922,-1,98,93
2821,24,61,1671.793,-1,123,128
2822,24,62,2401.3720000000008,-1,84,63
2823,24,63,2398.838,-1,93,79
2824,24,64,6067.071,1,63,75
2825,24,65,3546.99,1,79,93
2826,24,66,5266.732,1,63,79
2827,24,67,6182.813,1,93,107
2828,24,68,7787.6640000000025,-1,123,119
2829,24,69,6293.669,1,75,63
2830,24,70,2747.01,-1,123,121
2831,24,71,3819.115,1,63,84
2832,24,72,2608.959,-1,86,63
2833,24,73,5789.958000000001,-1,63,68
2834,24,74,3137.528,-1,93,77
2835,24,75,11949.455,-1,93,87
2836,24,76,4462.793,-1,123,118
2837,24,77,9508.517,1,93,99
2838,24,78,2712.7090000000007,1,128,123
2839,24,79,1579.458,-1,104,93
2840,24,80,2888.724,-1,123,120
2841,24,81,4297.435,1,123,133
2842,24,82,2260.145,-1,93,85
2843,24,83,1960.698,1,58,63
2844,24,84,3239.019,1,70,63
2845,24,85,2213.529,1,83,93
2846,24,86,2944.0440000000012,-1,93,101
2847,24,87,5211.769,-1,80,93
2848,24,88,3964.665,-1,93,83
2849,24,89,3423.163,1,85,93
2850,24,90,2643.2790000000005,1,93,103
2851,24,91,4970.891,-1,93,80
2852,24,92,3342.673,1,91,93
2853,24,93,1978.514,1,123,132
2854,24,94,6042.265,-1,77,63
2855,24,95,2930.168,-1,93,88
2856,24,96,6251.257,-1,113,123
2857,24,97,1759.21,-1,132,123
2858,24,98,4677.634,1,63,77
2859,24,99,2788.571,-1,101,93
2860,24,100,2701.609000000001,-1,124,123
2861,24,101,2059.749,-1,130,123
2862,24,102,2985.155,-1,122,123
2863,24,103,3842.488,-1,61,63
2864,24,104,1674.875,-1,133,123
2865,24,105,3977.509,1,123,122
2866,24,106,6565.472,-1,88,93
2867,24,107,2701.208,-1,123,124
2868,24,108,4268.8,-1,123,130
2869,24,109,4315.806,-1,93,91
2870,24,110,3440.885,-1,123,113
2871,24,111,3279.55,-1,120,123
2872,24,112,4856.0920000000015,1,51,63
2873,24,113,2480.809,-1,106,93
2874,24,114,6157.77,-1,93,106
2875,24,115,2544.731,-1,103,93
2876,24,116,2351.11,-1,63,51
2877,24,117,2895.454,-1,63,58
2878,24,118,3671.883,-1,63,61
2879,24,119,5307.49,1,63,70
2880,25,0,10605.34,-1,63,42
2881,25,1,6873.107,-1,126,123
2882,25,2,9148.281,-1,123,129
2883,25,3,9435.773,1,116,123
2884,25,4,5681.378000000002,-1,131,123
2885,25,5,14484.907,-1,65,63
2886,25,6,20821.753,1,95,93
2887,25,7,5124.241,1,63,81
2888,25,8,4464.752,1,123,125
2889,25,9,12785.335,-1,63,72
2890,25,10,11620.869,-1,127,123
2891,25,11,6066.034000000002,-1,93,90
2892,25,12,14469.857,-1,123,117
2893,25,13,14354.673,-1,123,126
2894,25,14,8853.375,-1,63,49
2895,25,15,8577.71,1,82,93
2896,25,16,22884.768,-1,109,93
2897,25,17,18738.581,1,90,93
2898,25,18,7137.299,-1,72,63
2899,25,19,7638.14,1,117,123
2900,25,20,5032.886,1,123,131
2901,25,21,5773.3409999999985,-1,63,56
2902,25,22,18916.334,1,96,93
2903,25,23,3767.677,-1,93,82
2904,25,24,8356.347,-1,129,123
2905,25,25,10362.932,-1,123,116
2906,25,26,18878.189,1,123,127
2907,25,27,16446.413,-1,63,65
2908,25,28,6331.503000000002,1,40,63
2909,25,29,4537.676,1,42,63
2910,25,30,4827.674,1,47,63
2911,25,31,4442.857,-1,63,40
2912,25,32,4583.469,-1,63,47
2913,25,33,6211.153,-1,125,123
2914,25,34,11220.262,1,93,96
2915,25,35,9336.648,1,56,63
2916,25,36,8353.089,1,93,109
2917,25,37,10986.937,1,93,95
2918,25,38,3494.054,1,49,63
2919,25,39,5148.55,-1,81,63
2920,25,40,5272.922,1,45,63
2921,25,41,3494.499000000001,-1,123,115
2922,25,42,1748.989,-1,119,123
2923,25,43,5231.227,1,93,104
2924,25,44,5080.765,1,68,63
2925,25,45,4836.0790000000015,1,118,123
2926,25,46,4108.556,1,77,93
2927,25,47,3867.341,1,93,98
2928,25,48,4352.233,-1,63,45
2929,25,49,6863.626,1,114,123
2930,25,50,1729.7579999999994,-1,63,54
2931,25,51,10487.373,1,121,123
2932,25,52,9844.776,1,115,123
2933,25,53,2258.015,-1,54,63
2934,25,54,7393.847,-1,99,93
2935,25,55,4631.108,-1,87,93
2936,25,56,6976.254,-1,107,93
2937,25,57,3445.728,-1,123,114
2938,25,58,14442.578,-1,79,63
2939,25,59,7163.538000000001,1,63,86
2940,25,60,17352.241,-1,98,93
2941,25,61,12157.872,1,123,128
2942,25,62,6527.306,-1,84,63
2943,25,63,10886.82,-1,93,79
2944,25,64,4584.629,1,63,75
2945,25,65,4392.289000000002,1,79,93
2946,25,66,3026.2209999999995,1,63,79
2947,25,67,2553.148,1,93,107
2948,25,68,12648.333,-1,123,119
2949,25,69,14784.401000000002,-1,75,63
2950,25,70,9254.688,1,123,121
2951,25,71,6988.265,1,63,84
2952,25,72,4438.115,-1,86,63
2953,25,73,13030.08,-1,63,68
2954,25,74,4169.67,-1,93,77
2955,25,75,14829.522,1,93,87
2956,25,76,4997.609,-1,123,118
2957,25,77,12149.061000000005,1,93,99
2958,25,78,9155.211,1,128,123
2959,25,79,7639.21,-1,104,93
2960,25,80,10451.447,1,123,120
2961,25,81,3062.126,1,123,133
2962,25,82,2317.785,-1,93,85
2963,25,83,3715.88,1,58,63
2964,25,84,5518.65,1,70,63
2965,25,85,3033.6090000000013,1,83,93
2966,25,86,6281.081,-1,93,101
2967,25,87,5961.882,1,80,93
2968,25,88,3211.206,-1,93,83
2969,25,89,3237.87,1,85,93
2970,25,90,6432.154,1,93,103
2971,25,91,10040.522,-1,93,80
2972,25,92,2498.547,-1,91,93
2973,25,93,3623.451,1,123,132
2974,25,94,3671.973,-1,77,63
2975,25,95,11918.43,1,93,88
2976,25,96,3124.5959999999995,1,113,123
2977,25,97,2185.444,-1,132,123
2978,25,98,5332.1,1,63,77
2979,25,99,9531.317,1,101,93
2980,25,100,7351.0369999999975,1,124,123
2981,25,101,11476.7,-1,130,123
2982,25,102,7324.7,1,122,123
2983,25,103,8582.713,1,61,63
2984,25,104,1807.66,-1,133,123
2985,25,105,7903.485,1,123,122
2986,25,106,9877.773,1,88,93
2987,25,107,6297.153,-1,123,124
2988,25,108,8252.668,-1,123,130
2989,25,109,6010.176,-1,93,91
2990,25,110,3384.727000000001,-1,123,113
2991,25,111,7329.265,-1,120,123
2992,25,112,7596.478,1,51,63
2993,25,113,6557.638000000001,-1,106,93
2994,25,114,9484.053,-1,93,106
2995,25,115,14925.51,-1,103,93
2996,25,116,11435.305,-1,63,51
2997,25,117,8143.982,-1,63,58
2998,25,118,13629.316,1,63,61
2999,25,119,11410.918,-1,63,70
3000,26,0,2493.757,-1,63,42
3001,26,1,2694.086,-1,126,123
3002,26,2,3082.664,1,123,129
3003,26,3,2189.881,-1,116,123
3004,26,4,2006.645,-1,131,123
3005,26,5,2061.51,-1,65,63
3006,26,6,3270.151,1,95,93
3007,26,7,2749.182,1,63,81
3008,26,8,1961.831,-1,123,125
3009,26,9,2567.314,1,63,72
3010,26,10,2440.868,-1,127,123
3011,26,11,2501.371,-1,93,90
3012,26,12,2034.693,-1,123,117
3013,26,13,2186.896,-1,123,126
3014,26,14,3497.84,-1,63,49
3015,26,15,4301.24,-1,82,93
3016,26,16,2002.954,-1,109,93
3017,26,17,4178.732,1,90,93
3018,26,18,2498.799,-1,72,63
3019,26,19,4576.566,-1,117,123
3020,26,20,3470.541,1,123,131
3021,26,21,3723.311,1,63,56
3022,26,22,3684.998,1,96,93
3023,26,23,4086.338,1,93,82
3024,26,24,5223.016,1,129,123
3025,26,25,4457.953,1,123,116
3026,26,26,7896.099,-1,123,127
3027,26,27,5371.976,1,63,65
3028,26,28,4946.858,1,40,63
3029,26,29,3588.377,1,42,63
3030,26,30,3142.813,-1,47,63
3031,26,31,4487.395,-1,63,40
3032,26,32,2063.181,-1,63,47
3033,26,33,2060.215,-1,125,123
3034,26,34,2384.944,-1,93,96
3035,26,35,2822.85,1,56,63
3036,26,36,2110.343,-1,93,109
3037,26,37,2032.518,-1,93,95
3038,26,38,4916.4209999999985,-1,49,63
3039,26,39,3463.87,-1,81,63
3040,26,40,6310.878000000002,1,45,63
3041,26,41,2225.929,-1,123,115
3042,26,42,5577.786,1,119,123
3043,26,43,3762.645,1,93,104
3044,26,44,6337.387,-1,68,63
3045,26,45,5171.295,-1,118,123
3046,26,46,3259.466,1,77,93
3047,26,47,5783.933000000001,-1,93,98
3048,26,48,2434.332000000001,-1,63,45
3049,26,49,4499.962,1,114,123
3050,26,50,6346.889,-1,63,54
3051,26,51,10257.774,-1,121,123
3052,26,52,3939.51,-1,115,123
3053,26,53,5972.627,1,54,63
3054,26,54,2583.198,-1,99,93
3055,26,55,5884.523,1,87,93
3056,26,56,2442.05,-1,107,93
3057,26,57,2534.487,-1,123,114
3058,26,58,2364.845,-1,79,63
3059,26,59,4377.315,1,63,86
3060,26,60,5945.525,1,98,93
3061,26,61,3650.664,-1,123,128
3062,26,62,2038.65,-1,84,63
3063,26,63,2173.383,-1,93,79
3064,26,64,5711.783,1,63,75
3065,26,65,6388.109,1,79,93
3066,26,66,4760.737,1,63,79
3067,26,67,4125.136,1,93,107
3068,26,68,4116.57,-1,123,119
3069,26,69,2502.618,-1,75,63
3070,26,70,1974.829,-1,123,121
3071,26,71,2485.7670000000007,-1,63,84
3072,26,72,2519.234,-1,86,63
3073,26,73,5623.303000000001,-1,63,68
3074,26,74,4310.302,-1,93,77
3075,26,75,10034.304,-1,93,87
3076,26,76,3917.847,-1,123,118
3077,26,77,3621.119,-1,93,99
3078,26,78,5296.541,-1,128,123
3079,26,79,2968.852000000001,-1,104,93
3080,26,80,2557.246,-1,123,120
3081,26,81,2706.55,1,123,133
3082,26,82,3796.593,-1,93,85
3083,26,83,1872.349,-1,58,63
3084,26,84,2463.985,-1,70,63
3085,26,85,3838.883,-1,83,93
3086,26,86,2455.096,-1,93,101
3087,26,87,5683.111,1,80,93
3088,26,88,3791.917,-1,93,83
3089,26,89,3503.122000000001,-1,85,93
3090,26,90,6476.696,1,93,103
3091,26,91,3457.796,-1,93,80
3092,26,92,1964.479,-1,91,93
3093,26,93,2053.255,-1,123,132
3094,26,94,2527.177,-1,77,63
3095,26,95,4151.532,-1,93,88
3096,26,96,2804.157,-1,113,123
3097,26,97,2186.1710000000007,-1,132,123
3098,26,98,4935.597,-1,63,77
3099,26,99,2388.042,-1,101,93
3100,26,100,2323.647,-1,124,123
3101,26,101,2301.232,-1,130,123
3102,26,102,2179.766,-1,122,123
3103,26,103,2751.792,-1,61,63
3104,26,104,1819.369,1,133,123
3105,26,105,2228.339,1,123,122
3106,26,106,3792.063,1,88,93
3107,26,107,1906.59,1,123,124
3108,26,108,2741.057,1,123,130
3109,26,109,1906.411,1,93,91
3110,26,110,3047.259,1,123,113
3111,26,111,1978.091,1,120,123
3112,26,112,3814.17,1,51,63
3113,26,113,3913.72,1,106,93
3114,26,114,2412.024,-1,93,106
3115,26,115,2991.058,-1,103,93
3116,26,116,2817.886,-1,63,51
3117,26,117,5008.878,-1,63,58
3118,26,118,4788.343,-1,63,61
3119,26,119,2959.277,1,63,70
3120,27,0,3950.737,-1,63,42
3121,27,1,5835.02,1,126,123
3122,27,2,5352.883000000002,1,123,129
3123,27,3,4507.477,1,116,123
3124,27,4,6834.804,-1,131,123
3125,27,5,6077.44,1,65,63
3126,27,6,5213.457,-1,95,93
3127,27,7,5328.029,-1,63,81
3128,27,8,9261.84,1,123,125
3129,27,9,6691.854,1,63,72
3130,27,10,7757.531,-1,127,123
3131,27,11,4448.349,-1,93,90
3132,27,12,7716.714,-1,123,117
3133,27,13,4408.253,1,123,126
3134,27,14,7122.705,-1,63,49
3135,27,15,5303.804,1,82,93
3136,27,16,7383.269,-1,109,93
3137,27,17,5048.714,1,90,93
3138,27,18,6305.976,-1,72,63
3139,27,19,4163.416,1,117,123
3140,27,20,4185.19,1,123,131
3141,27,21,4748.806,-1,63,56
3142,27,22,3863.596,1,96,93
3143,27,23,7102.542,-1,93,82
3144,27,24,4330.574000000001,1,129,123
3145,27,25,8992.131,1,123,116
3146,27,26,3646.563,1,123,127
3147,27,27,5312.972,1,63,65
3148,27,28,7022.679,-1,40,63
3149,27,29,5082.712,-1,42,63
3150,27,30,5260.004,1,47,63
3151,27,31,5862.397,-1,63,40
3152,27,32,4152.259,1,63,47
3153,27,33,3599.014,1,125,123
3154,27,34,8363.168,1,93,96
3155,27,35,3620.641,1,56,63
3156,27,36,3040.126,1,93,109
3157,27,37,6458.051,1,93,95
3158,27,38,4473.641,-1,49,63
3159,27,39,3180.253,-1,81,63
3160,27,40,4239.498,1,45,63
3161,27,41,4625.924,-1,123,115
3162,27,42,4072.04,1,119,123
3163,27,43,4906.705,1,93,104
3164,27,44,4292.288,-1,68,63
3165,27,45,5769.833000000001,-1,118,123
3166,27,46,4733.5909999999985,-1,77,93
3167,27,47,6157.984,-1,93,98
3168,27,48,4234.539000000002,-1,63,45
3169,27,49,3630.714,1,114,123
3170,27,50,6557.871,1,63,54
3171,27,51,5309.828,-1,121,123
3172,27,52,4604.851,1,115,123
3173,27,53,5040.161,1,54,63
3174,27,54,5441.323,-1,99,93
3175,27,55,5291.478,1,87,93
3176,27,56,4339.1309999999985,-1,107,93
3177,27,57,3678.944,-1,123,114
3178,27,58,5376.17,-1,79,63
3179,27,59,2604.992,1,63,86
3180,27,60,5154.389,1,98,93
3181,27,61,5868.849,1,123,128
3182,27,62,5130.935,-1,84,63
3183,27,63,5026.089,-1,93,79
3184,27,64,6148.575,-1,63,75
3185,27,65,5467.923000000002,1,79,93
3186,27,66,4826.5340000000015,1,63,79
3187,27,67,5872.719,1,93,107
3188,27,68,6741.6330000000025,-1,123,119
3189,27,69,7723.0390000000025,-1,75,63
3190,27,70,6462.609,1,123,121
3191,27,71,3577.235,-1,63,84
3192,27,72,8134.953,1,86,63
3193,27,73,8271.287,-1,63,68
3194,27,74,5890.257,-1,93,77
3195,27,75,6681.145,1,93,87
3196,27,76,3931.176,1,123,118
3197,27,77,5814.201,1,93,99
3198,27,78,3750.232,1,128,123
3199,27,79,6426.749,-1,104,93
3200,27,80,5299.463000000002,1,123,120
3201,27,81,7262.565,1,123,133
3202,27,82,2547.739,-1,93,85
3203,27,83,4122.298,1,58,63
3204,27,84,6899.056,-1,70,63
3205,27,85,3600.4640000000004,1,83,93
3206,27,86,4702.821,1,93,101
3207,27,87,3088.199,-1,80,93
3208,27,88,7539.236,-1,93,83
3209,27,89,4671.322,1,85,93
3210,27,90,5220.196,1,93,103
3211,27,91,6322.4659999999985,-1,93,80
3212,27,92,5002.960999999998,1,91,93
3213,27,93,4142.707,1,123,132
3214,27,94,3767.635,-1,77,63
3215,27,95,6446.426,1,93,88
3216,27,96,2007.432,1,113,123
3217,27,97,6654.523,-1,132,123
3218,27,98,3623.594,1,63,77
3219,27,99,5884.854,-1,101,93
3220,27,100,3695.386,1,124,123
3221,27,101,5105.959,-1,130,123
3222,27,102,3536.975,-1,122,123
3223,27,103,2521.818,1,61,63
3224,27,104,5945.755,-1,133,123
3225,27,105,8233.828000000001,1,123,122
3226,27,106,3162.231,1,88,93
3227,27,107,4366.012,1,123,124
3228,27,108,8532.418,1,123,130
3229,27,109,4736.5059999999985,1,93,91
3230,27,110,6030.07,-1,123,113
3231,27,111,3036.054,-1,120,123
3232,27,112,3162.565,-1,51,63
3233,27,113,4667.88,1,106,93
3234,27,114,4011.585,1,93,106
3235,27,115,4987.245,-1,103,93
3236,27,116,4882.907,1,63,51
3237,27,117,5823.348000000001,1,63,58
3238,27,118,5319.627,-1,63,61
3239,27,119,4829.936,1,63,70
3240,28,0,2516.803,-1,63,42
3241,28,1,4611.667,-1,126,123
3242,28,2,3162.954,-1,123,129
3243,28,3,4274.44,1,116,123
3244,28,4,1320.3429999999996,-1,131,123
3245,28,5,3516.693,-1,65,63
3246,28,6,4181.559,-1,95,93
3247,28,7,3230.012,1,63,81
3248,28,8,3748.777,1,123,125
3249,28,9,4056.129,-1,63,72
3250,28,10,1765.118,-1,127,123
3251,28,11,2491.894,1,93,90
3252,28,12,2776.723,-1,123,117
3253,28,13,2389.414,1,123,126
3254,28,14,3909.992,-1,63,49
3255,28,15,5017.354,1,82,93
3256,28,16,1897.163,-1,109,93
3257,28,17,4054.092,1,90,93
3258,28,18,2561.493,-1,72,63
3259,28,19,2424.959,-1,117,123
3260,28,20,2090.37,1,123,131
3261,28,21,2656.322,1,63,56
3262,28,22,2934.752,-1,96,93
3263,28,23,2613.508,-1,93,82
3264,28,24,1588.852,-1,129,123
3265,28,25,1666.338,-1,123,116
3266,28,26,1429.186,-1,123,127
3267,28,27,2283.973,-1,63,65
3268,28,28,5978.587,1,40,63
3269,28,29,3715.7790000000014,-1,42,63
3270,28,30,3857.005,1,47,63
3271,28,31,2976.104000000001,-1,63,40
3272,28,32,5246.761,-1,63,47
3273,28,33,2561.83,1,125,123
3274,28,34,3181.643,-1,93,96
3275,28,35,2615.883,1,56,63
3276,28,36,1252.518,1,93,109
3277,28,37,6176.735,1,93,95
3278,28,38,1861.325,1,49,63
3279,28,39,2567.343,-1,81,63
3280,28,40,6297.531999999997,1,45,63
3281,28,41,1401.089,-1,123,115
3282,28,42,2104.552,1,119,123
3283,28,43,2359.182,1,93,104
3284,28,44,3290.019,1,68,63
3285,28,45,1893.093,1,118,123
3286,28,46,2076.873,1,77,93
3287,28,47,1671.487,1,93,98
3288,28,48,1379.1629999999998,-1,63,45
3289,28,49,1890.568,-1,114,123
3290,28,50,1916.058,1,63,54
3291,28,51,1265.762,-1,121,123
3292,28,52,1345.4679999999996,1,115,123
3293,28,53,1792.846,1,54,63
3294,28,54,4371.712,-1,99,93
3295,28,55,1260.809,1,87,93
3296,28,56,2755.008,-1,107,93
3297,28,57,1298.415,-1,123,114
3298,28,58,2360.726,-1,79,63
3299,28,59,3837.262,1,63,86
3300,28,60,1772.3529999999994,-1,98,93
3301,28,61,2033.685,1,123,128
3302,28,62,1944.72,-1,84,63
3303,28,63,2595.402,-1,93,79
3304,28,64,3124.884,1,63,75
3305,28,65,1874.184,1,79,93
3306,28,66,1970.511,1,63,79
3307,28,67,1708.575,1,93,107
3308,28,68,1147.188,-1,123,119
3309,28,69,1963.095,-1,75,63
3310,28,70,1404.836,-1,123,121
3311,28,71,1831.547,1,63,84
3312,28,72,3129.259,-1,86,63
3313,28,73,5533.476,1,63,68
3314,28,74,2495.93,-1,93,77
3315,28,75,1847.687,-1,93,87
3316,28,76,1486.134,-1,123,118
3317,28,77,2800.127,1,93,99
3318,28,78,1148.0,-1,128,123
3319,28,79,1277.401,-1,104,93
3320,28,80,2797.915,-1,123,120
3321,28,81,1747.437,1,123,133
3322,28,82,1347.686,-1,93,85
3323,28,83,1417.795,-1,58,63
3324,28,84,2121.8160000000007,-1,70,63
3325,28,85,2185.408,1,83,93
3326,28,86,5207.333,1,93,101
3327,28,87,2165.593,1,80,93
3328,28,88,2110.669,-1,93,83
3329,28,89,2865.854000000001,1,85,93
3330,28,90,1830.256,1,93,103
3331,28,91,2949.485,-1,93,80
3332,28,92,2504.76,-1,91,93
3333,28,93,1805.355,1,123,132
3334,28,94,2436.003,-1,77,63
3335,28,95,1165.694,-1,93,88
3336,28,96,1898.451,1,113,123
3337,28,97,2716.545,-1,132,123
3338,28,98,5059.486,-1,63,77
3339,28,99,1643.581,-1,101,93
3340,28,100,2790.7340000000013,1,124,123
3341,28,101,1351.956,-1,130,123
3342,28,102,1314.693,-1,122,123
3343,28,103,1949.92,1,61,63
3344,28,104,1411.48,-1,133,123
3345,28,105,1795.223,1,123,122
3346,28,106,1928.204,1,88,93
3347,28,107,1282.97,-1,123,124
