,parcode,trial,rt,choice,item_left,item_right
0,1,0,1734.284,1,110,131
1,1,1,6555.37,-1,47,50
2,1,2,3174.566,-1,50,44
3,1,3,2877.579,1,57,50
4,1,4,1806.31,1,42,50
5,1,5,3636.816,-1,108,110
6,1,6,3650.266,1,78,80
7,1,7,3078.223,-1,110,92
8,1,8,1259.268,1,50,48
9,1,9,3440.738,-1,110,101
10,1,10,5698.026999999999,1,46,50
11,1,11,8224.466999999999,1,80,83
12,1,12,2626.168,1,50,56
13,1,13,1991.413,-1,50,47
14,1,14,1671.149,1,110,124
15,1,15,2607.607,-1,91,80
16,1,16,1527.826,1,64,80
17,1,17,5043.16,-1,83,80
18,1,18,2267.665,1,101,110
19,1,19,4499.543,-1,56,50
20,1,20,5571.061,-1,50,42
21,1,21,2045.641,1,110,117
22,1,22,1402.112,1,77,80
23,1,23,2736.625,1,80,91
24,1,24,2065.604,1,44,50
25,1,25,3058.203,1,50,57
26,1,26,1613.454,1,50,46
27,1,27,1931.482,1,110,108
28,1,28,4895.517,-1,133,110
29,1,29,3197.86,1,131,110
30,1,30,2000.688,1,126,110
31,1,31,1921.251,1,110,133
32,1,32,2050.4970000000008,1,110,126
33,1,33,2219.756,1,48,50
34,1,34,1635.473,1,80,77
35,1,35,5608.432,-1,117,110
36,1,36,4443.018,-1,80,64
37,1,37,2620.927,1,80,78
38,1,38,1725.9029999999998,1,124,110
39,1,39,3225.23,1,92,110
40,1,40,1686.53,-1,128,110
41,1,41,2010.532,1,50,58
42,1,42,2244.929,-1,54,50
43,1,43,2092.94,-1,80,69
44,1,44,1361.319,1,105,110
45,1,45,1596.589,1,55,50
46,1,46,2850.121,-1,96,80
47,1,47,1380.8970000000006,1,80,75
48,1,48,1391.672,1,110,128
49,1,49,2101.903,-1,59,50
50,1,50,1582.34,1,110,119
51,1,51,2320.312,-1,52,50
52,1,52,2184.782,-1,58,50
53,1,53,2602.684,-1,119,110
54,1,54,2890.742,1,74,80
55,1,55,1954.547,1,86,80
56,1,56,1901.984,1,66,80
57,1,57,3133.506,1,50,59
58,1,58,2545.418,1,94,110
59,1,59,2023.468,-1,110,87
60,1,60,3330.755,1,75,80
61,1,61,1866.57,-1,50,45
62,1,62,1604.858,1,89,110
63,1,63,2458.127,1,80,94
64,1,64,4970.636,-1,110,98
65,1,65,3115.157,-1,94,80
66,1,66,3128.098,-1,110,94
67,1,67,3745.136,-1,80,66
68,1,68,3673.352,1,50,54
69,1,69,4942.765,1,98,110
70,1,70,2224.593,-1,50,52
71,1,71,2997.098,1,110,89
72,1,72,1391.7379999999994,1,87,110
73,1,73,3340.985,-1,110,105
74,1,74,1648.785,1,80,96
75,1,75,1990.089,-1,80,86
76,1,76,2490.532,1,50,55
77,1,77,2508.0170000000007,-1,80,74
78,1,78,2293.524,1,45,50
79,1,79,3004.818,1,69,80
80,1,80,3496.366,1,50,53
81,1,81,2849.513,1,50,40
82,1,82,1540.3929999999998,1,80,88
83,1,83,2342.863,-1,115,110
84,1,84,2502.521,1,103,110
85,1,85,1799.6270000000006,-1,90,80
86,1,86,5352.23,1,80,72
87,1,87,2424.21,-1,93,80
88,1,88,1269.404,1,80,90
89,1,89,2779.2740000000013,-1,88,80
90,1,90,2537.132,-1,80,70
91,1,91,2351.272,1,80,93
92,1,92,2358.716,-1,82,80
93,1,93,2684.724,-1,50,41
94,1,94,1983.477,1,96,110
95,1,95,4650.79,1,80,85
96,1,96,3835.065,-1,60,50
97,1,97,3849.206,1,41,50
98,1,98,3243.343,-1,110,96
99,1,99,1644.5839999999994,1,72,80
100,1,100,1274.981,1,49,50
101,1,101,2589.055,1,43,50
102,1,102,2300.565,-1,51,50
103,1,103,2922.026,-1,112,110
104,1,104,1135.847,1,40,50
105,1,105,1991.672,1,50,51
106,1,106,1851.808,-1,85,80
107,1,107,1321.034,1,50,49
108,1,108,4003.124,1,50,43
109,1,109,1954.281,-1,80,82
110,1,110,2030.128,1,50,60
111,1,111,1964.125,-1,53,50
112,1,112,2014.069,-1,122,110
113,1,113,1598.829,1,67,80
114,1,114,1453.6029999999994,1,80,67
115,1,115,1977.727,1,70,80
116,1,116,1623.8970000000006,1,110,122
117,1,117,2901.364,1,110,115
118,1,118,1565.164,1,110,112
119,1,119,1559.884,1,110,103
120,2,0,6228.547,1,110,131
121,2,1,6635.751,1,47,50
122,2,2,4766.7440000000015,-1,50,44
123,2,3,10945.402,-1,57,50
124,2,4,5673.265,1,42,50
125,2,5,46657.359,1,108,110
126,2,6,7750.691,-1,78,80
127,2,7,9776.843,-1,110,92
128,2,8,7758.235,1,50,48
129,2,9,44526.337,-1,110,101
130,2,10,10806.455,1,46,50
131,2,11,5936.281,1,80,83
132,2,12,22118.048,-1,50,56
133,2,13,7867.571999999999,-1,50,47
134,2,14,24336.379,1,110,124
135,2,15,12568.18,-1,91,80
136,2,16,7216.420999999998,1,64,80
137,2,17,24450.946,-1,83,80
138,2,18,20652.52,1,101,110
139,2,19,9962.632,-1,56,50
140,2,20,15264.738,-1,50,42
141,2,21,14577.04,1,110,117
142,2,22,10502.538,-1,77,80
143,2,23,8938.346,1,80,91
144,2,24,8371.705,1,44,50
145,2,25,8634.889000000001,-1,50,57
146,2,26,9256.349,-1,50,46
147,2,27,98982.33,-1,110,108
148,2,28,71123.695,-1,133,110
149,2,29,14323.977,1,131,110
150,2,30,11246.8,1,126,110
151,2,31,5729.5819999999985,1,110,133
152,2,32,15507.063,1,110,126
153,2,33,9584.002,-1,48,50
154,2,34,15060.043,1,80,77
155,2,35,13755.941,1,117,110
156,2,36,4962.179,-1,80,64
157,2,37,7058.905,1,80,78
158,2,38,6745.102,1,124,110
159,2,39,5223.511,1,92,110
160,2,40,6980.156,-1,128,110
161,2,41,7323.464,1,50,58
162,2,42,12685.652,1,54,50
163,2,43,6234.269,-1,80,69
164,2,44,7470.982,1,105,110
165,2,45,19803.463,-1,55,50
166,2,46,4605.276,-1,96,80
167,2,47,10068.237,1,80,75
168,2,48,4717.351,1,110,128
169,2,49,10498.412,-1,59,50
170,2,50,4786.207,1,110,119
171,2,51,17514.256999999998,-1,52,50
172,2,52,7383.357,-1,58,50
173,2,53,19661.432,-1,119,110
174,2,54,11765.399,1,74,80
175,2,55,11965.88,-1,86,80
176,2,56,3989.236,1,66,80
177,2,57,9313.449,-1,50,59
178,2,58,10580.194,1,94,110
179,2,59,6636.98,-1,110,87
180,2,60,6202.516,1,75,80
181,2,61,28899.841,1,50,45
182,2,62,9338.527,1,89,110
183,2,63,4110.953,1,80,94
184,2,64,5941.794,-1,110,98
185,2,65,2614.124,-1,94,80
186,2,66,5470.66,-1,110,94
187,2,67,11858.61,-1,80,66
188,2,68,4419.104,1,50,54
189,2,69,8740.806,1,98,110
190,2,70,11192.925,-1,50,52
191,2,71,11204.062,-1,110,89
192,2,72,7304.684,1,87,110
193,2,73,8140.553000000001,1,110,105
194,2,74,10329.606,1,80,96
195,2,75,6838.95,1,80,86
196,2,76,7156.253000000002,1,50,55
197,2,77,23243.99700000001,-1,80,74
198,2,78,8328.395,1,45,50
199,2,79,2418.19,1,69,80
200,2,80,7567.203,1,50,53
201,2,81,3128.203,-1,50,40
202,2,82,4282.243,1,80,88
203,2,83,11387.791,1,115,110
204,2,84,6243.72,1,103,110
205,2,85,7674.5,1,90,80
206,2,86,13351.711,-1,80,72
207,2,87,15023.755,-1,93,80
208,2,88,4556.762,1,80,90
209,2,89,8987.876,-1,88,80
210,2,90,10619.167,-1,80,70
211,2,91,3456.776,1,80,93
212,2,92,6730.993,-1,82,80
213,2,93,6897.651999999999,-1,50,41
214,2,94,7074.3719999999985,1,96,110
215,2,95,4346.168,1,80,85
216,2,96,15269.582,-1,60,50
217,2,97,5680.574000000001,1,41,50
218,2,98,6420.155,-1,110,96
219,2,99,7512.655,1,72,80
220,2,100,4470.683,1,49,50
221,2,101,15616.594,-1,43,50
222,2,102,5593.92,-1,51,50
223,2,103,7397.905,1,112,110
224,2,104,4188.963,1,40,50
225,2,105,11009.734,1,50,51
226,2,106,12227.283,1,85,80
227,2,107,6611.683000000001,-1,50,49
228,2,108,6072.679,-1,50,43
229,2,109,6999.655,1,80,82
230,2,110,3228.329,1,50,60
231,2,111,4967.049,-1,53,50
232,2,112,12912.862,1,122,110
233,2,113,5397.382,1,67,80
234,2,114,9558.551,-1,80,67
235,2,115,6003.087,1,70,80
236,2,116,18304.296,1,110,122
237,2,117,4058.755,1,110,115
238,2,118,23107.279,1,110,112
239,2,119,7476.425,-1,110,103
240,3,0,8280.333,1,110,131
241,3,1,7167.467,1,47,50
242,3,2,8070.478,1,50,44
243,3,3,4998.854,-1,57,50
244,3,4,7020.031,1,42,50
245,3,5,5506.326,1,108,110
246,3,6,5346.013000000001,1,78,80
247,3,7,6129.209,-1,110,92
248,3,8,9167.056,-1,50,48
249,3,9,7253.443,1,110,101
250,3,10,5005.184,1,46,50
251,3,11,5040.511,1,80,83
252,3,12,7641.814,-1,50,56
253,3,13,3350.826,1,50,47
254,3,14,3213.827,1,110,124
255,3,15,5841.773,-1,91,80
256,3,16,2625.496,1,64,80
257,3,17,4849.473,1,83,80
258,3,18,3451.203,1,101,110
259,3,19,7469.5880000000025,-1,56,50
260,3,20,3372.03,-1,50,42
261,3,21,6138.022,-1,110,117
262,3,22,6402.819,-1,77,80
263,3,23,4444.338,1,80,91
264,3,24,2608.586,1,44,50
265,3,25,5440.031999999998,1,50,57
266,3,26,5260.323,-1,50,46
267,3,27,2857.7,1,110,108
268,3,28,4622.699000000001,-1,133,110
269,3,29,4792.599,-1,131,110
270,3,30,6148.765,-1,126,110
271,3,31,4290.5,1,110,133
272,3,32,5208.041,-1,110,126
273,3,33,3034.445,1,48,50
274,3,34,3584.427,-1,80,77
275,3,35,6892.869000000002,-1,117,110
276,3,36,2476.989,1,80,64
277,3,37,5866.721,-1,80,78
278,3,38,7484.359,1,124,110
279,3,39,2500.835,1,92,110
280,3,40,3428.153,-1,128,110
281,3,41,2432.49,1,50,58
282,3,42,4460.86,-1,54,50
283,3,43,3493.201,-1,80,69
284,3,44,3374.0890000000004,1,105,110
285,3,45,2623.875,-1,55,50
286,3,46,4936.822,-1,96,80
287,3,47,6600.851,-1,80,75
288,3,48,3039.455,1,110,128
289,3,49,4171.929,-1,59,50
290,3,50,2621.556,1,110,119
291,3,51,4225.163,-1,52,50
292,3,52,1730.156,1,58,50
293,3,53,2161.17,-1,119,110
294,3,54,5793.635,-1,74,80
295,3,55,6880.526,-1,86,80
296,3,56,1503.644,1,66,80
297,3,57,3599.021,1,50,59
298,3,58,4647.386,1,94,110
299,3,59,2104.608,-1,110,87
300,3,60,3663.508,1,75,80
301,3,61,1428.75,1,50,45
302,3,62,1818.229,1,89,110
303,3,63,2621.649000000001,1,80,94
304,3,64,1861.231,-1,110,98
305,3,65,1986.401,-1,94,80
306,3,66,2072.406,1,110,94
307,3,67,2149.11,-1,80,66
308,3,68,1708.406,1,50,54
309,3,69,1849.511,1,98,110
310,3,70,1632.089,1,50,52
311,3,71,1427.93,-1,110,89
312,3,72,2591.58,1,87,110
313,3,73,3163.686,1,110,105
314,3,74,2995.507,1,80,96
315,3,75,2408.271,1,80,86
316,3,76,1715.706,1,50,55
317,3,77,4161.4940000000015,-1,80,74
318,3,78,4250.03,1,45,50
319,3,79,1883.502,1,69,80
320,3,80,3463.021,1,50,53
321,3,81,4614.063,1,50,40
322,3,82,3670.417,1,80,88
323,3,83,1955.291,-1,115,110
324,3,84,2539.423,1,103,110
325,3,85,2504.688,-1,90,80
326,3,86,2264.841,-1,80,72
327,3,87,3871.268,-1,93,80
328,3,88,2988.316,-1,80,90
329,3,89,3182.992,-1,88,80
330,3,90,2879.908,1,80,70
331,3,91,3832.523,1,80,93
332,3,92,3374.473,-1,82,80
333,3,93,4296.539000000002,-1,50,41
334,3,94,1664.744,1,96,110
335,3,95,1615.953,1,80,85
336,3,96,3923.588,1,60,50
337,3,97,4026.835,1,41,50
338,3,98,1902.077,-1,110,96
339,3,99,5104.126,1,72,80
340,3,100,2092.791,1,49,50
341,3,101,1598.885,1,43,50
342,3,102,3318.872000000001,-1,51,50
343,3,103,4246.255,-1,112,110
344,3,104,4098.269,1,40,50
345,3,105,4183.0340000000015,-1,50,51
346,3,106,1733.372,1,85,80
347,3,107,4202.163,1,50,49
348,3,108,2356.3,-1,50,43
349,3,109,1870.494,1,80,82
350,3,110,1738.671,1,50,60
351,3,111,2082.474,1,53,50
352,3,112,2463.471,1,122,110
353,3,113,1543.8870000000006,1,67,80
354,3,114,2664.14,-1,80,67
355,3,115,6240.445,1,70,80
356,3,116,2168.694,1,110,122
357,3,117,2788.367,-1,110,115
358,3,118,1900.364,1,110,112
359,3,119,2711.223,1,110,103
360,4,0,3753.06,1,110,131
361,4,1,2852.768,1,47,50
362,4,2,7578.454000000002,1,50,44
363,4,3,19368.146,-1,57,50
364,4,4,3215.312,1,42,50
365,4,5,1942.017,1,108,110
366,4,6,1587.571,1,78,80
367,4,7,2246.732,-1,110,92
368,4,8,2550.21,-1,50,48
369,4,9,5602.05,1,110,101
370,4,10,1793.4820000000002,1,46,50
371,4,11,5781.335,1,80,83
372,4,12,1880.978,1,50,56
373,4,13,3078.102000000001,1,50,47
374,4,14,9843.826,1,110,124
375,4,15,11180.726,-1,91,80
376,4,16,1902.12,1,64,80
377,4,17,1910.42,1,83,80
378,4,18,2634.23,1,101,110
379,4,19,2586.458,1,56,50
380,4,20,4955.317,1,50,42
381,4,21,2957.897,1,110,117
382,4,22,11515.408,1,77,80
383,4,23,2351.575,1,80,91
384,4,24,3137.373,1,44,50
385,4,25,1736.937,1,50,57
386,4,26,2057.448,1,50,46
387,4,27,11483.744,1,110,108
388,4,28,1873.12,-1,133,110
389,4,29,3187.65,-1,131,110
390,4,30,5174.183,-1,126,110
391,4,31,6284.96,1,110,133
392,4,32,2648.8920000000007,1,110,126
393,4,33,3745.233,1,48,50
394,4,34,5846.379,1,80,77
395,4,35,2244.629,1,117,110
396,4,36,4492.143,-1,80,64
397,4,37,2831.068,1,80,78
398,4,38,5841.602,1,124,110
399,4,39,2507.425,1,92,110
400,4,40,17445.725,-1,128,110
401,4,41,1605.944,1,50,58
402,4,42,4883.308,-1,54,50
403,4,43,1537.096,1,80,69
404,4,44,2097.817,1,105,110
405,4,45,6545.8409999999985,1,55,50
406,4,46,5068.047000000001,-1,96,80
407,4,47,10908.364,1,80,75
408,4,48,4783.775,1,110,128
409,4,49,5229.633,1,59,50
410,4,50,3058.329,1,110,119
411,4,51,6826.916,1,52,50
412,4,52,3045.3459999999995,-1,58,50
413,4,53,3269.93,1,119,110
414,4,54,1471.687,1,74,80
415,4,55,4238.808,1,86,80
416,4,56,1535.682,1,66,80
417,4,57,1519.3570000000002,1,50,59
418,4,58,2981.751,1,94,110
419,4,59,4321.7829999999985,-1,110,87
420,4,60,1608.882,1,75,80
421,4,61,9537.109,-1,50,45
422,4,62,1774.399,1,89,110
423,4,63,3304.423,1,80,94
424,4,64,3033.366,-1,110,98
425,4,65,6061.712,-1,94,80
426,4,66,2043.157,1,110,94
427,4,67,2237.002,-1,80,66
428,4,68,1632.804,1,50,54
429,4,69,1772.698,1,98,110
430,4,70,4730.624,1,50,52
431,4,71,12463.602,1,110,89
432,4,72,1735.195,1,87,110
433,4,73,3602.502,1,110,105
434,4,74,1572.06,1,80,96
435,4,75,2244.141,1,80,86
436,4,76,2891.789,1,50,55
437,4,77,26075.23,-1,80,74
438,4,78,1549.096,1,45,50
439,4,79,1694.063,1,69,80
440,4,80,24275.208,1,50,53
441,4,81,28694.544,-1,50,40
442,4,82,9090.346,1,80,88
443,4,83,2248.756,-1,115,110
444,4,84,6266.904,1,103,110
445,4,85,2477.286,-1,90,80
446,4,86,3713.833,1,80,72
447,4,87,3301.402,-1,93,80
448,4,88,4661.243,1,80,90
449,4,89,7973.228,-1,88,80
450,4,90,23899.959,-1,80,70
451,4,91,9832.332,1,80,93
452,4,92,8348.35,1,82,80
453,4,93,6603.464,1,50,41
454,4,94,1956.746,1,96,110
455,4,95,7123.875,1,80,85
456,4,96,4671.155,-1,60,50
457,4,97,2589.862,1,41,50
458,4,98,2795.518,-1,110,96
459,4,99,10457.271,1,72,80
460,4,100,19451.716,1,49,50
461,4,101,3254.627,1,43,50
462,4,102,3079.733,1,51,50
463,4,103,3459.986,1,112,110
464,4,104,15340.949,1,40,50
465,4,105,19093.958,1,50,51
466,4,106,13427.761,1,85,80
467,4,107,6109.62,1,50,49
468,4,108,8288.198,-1,50,43
469,4,109,1916.633,1,80,82
470,4,110,7507.571999999999,1,50,60
471,4,111,13232.992,-1,53,50
472,4,112,11606.772,-1,122,110
473,4,113,12451.409,1,67,80
474,4,114,18886.015,-1,80,67
475,4,115,1614.061,1,70,80
476,4,116,7399.05,-1,110,122
477,4,117,1900.737,1,110,115
478,4,118,3355.031,1,110,112
479,4,119,3006.93,1,110,103
480,5,0,2956.698,1,110,131
481,5,1,3701.877,-1,47,50
482,5,2,3152.05,-1,50,44
483,5,3,3153.11,-1,57,50
484,5,4,2396.847,1,42,50
485,5,5,4489.472,-1,108,110
486,5,6,3855.439,1,78,80
487,5,7,4038.037,-1,110,92
488,5,8,4217.473,1,50,48
489,5,9,3315.376,-1,110,101
490,5,10,3757.45,-1,46,50
491,5,11,6773.183000000001,-1,80,83
492,5,12,3177.4640000000004,1,50,56
493,5,13,3303.463,-1,50,47
494,5,14,2960.213,1,110,124
495,5,15,15960.826,-1,91,80
496,5,16,4419.742,1,64,80
497,5,17,4347.116,1,83,80
498,5,18,5359.5909999999985,-1,101,110
499,5,19,2847.962,-1,56,50
500,5,20,3925.857,-1,50,42
501,5,21,5172.947,1,110,117
502,5,22,5052.259,1,77,80
503,5,23,5466.552,1,80,91
504,5,24,3752.296,1,44,50
505,5,25,2538.419,1,50,57
506,5,26,3357.547,1,50,46
507,5,27,5031.74,1,110,108
508,5,28,3503.936,-1,133,110
509,5,29,1993.824,-1,131,110
510,5,30,2816.126,-1,126,110
511,5,31,2861.5820000000012,1,110,133
512,5,32,2965.652,1,110,126
513,5,33,4486.102,1,48,50
514,5,34,2822.192,1,80,77
515,5,35,8519.964,1,117,110
516,5,36,4165.882000000001,-1,80,64
517,5,37,5106.462,-1,80,78
518,5,38,5412.254,-1,124,110
519,5,39,2672.4709999999995,1,92,110
520,5,40,2240.432,-1,128,110
521,5,41,2874.8390000000004,1,50,58
522,5,42,3298.259,-1,54,50
523,5,43,3386.571,-1,80,69
524,5,44,5788.203,1,105,110
525,5,45,3221.33,-1,55,50
526,5,46,4298.562,-1,96,80
527,5,47,5391.25,-1,80,75
528,5,48,4248.572,1,110,128
529,5,49,3983.248,1,59,50
530,5,50,4782.524,1,110,119
531,5,51,2972.602000000001,1,52,50
532,5,52,2512.02,-1,58,50
533,5,53,5967.203,-1,119,110
534,5,54,2562.18,1,74,80
535,5,55,4803.215,-1,86,80
536,5,56,2434.068,1,66,80
537,5,57,2408.256,1,50,59
538,5,58,2687.139,1,94,110
539,5,59,2855.139,-1,110,87
540,5,60,4525.585999999998,1,75,80
541,5,61,2420.489,-1,50,45
542,5,62,4451.694,1,89,110
543,5,63,4451.385,1,80,94
544,5,64,10142.36,1,110,98
545,5,65,1995.119,-1,94,80
546,5,66,7315.840999999998,-1,110,94
547,5,67,7825.448,1,80,66
548,5,68,5077.025,-1,50,54
549,5,69,7236.550999999998,-1,98,110
550,5,70,4429.96,1,50,52
551,5,71,3060.255,-1,110,89
552,5,72,4307.453,1,87,110
553,5,73,6352.37,-1,110,105
554,5,74,3454.677,1,80,96
555,5,75,7417.97,1,80,86
556,5,76,2525.835,1,50,55
557,5,77,3980.034,-1,80,74
558,5,78,7475.688,1,45,50
559,5,79,3418.941,1,69,80
560,5,80,10750.35,1,50,53
561,5,81,1967.113,-1,50,40
562,5,82,4202.552,1,80,88
563,5,83,5729.013000000001,1,115,110
564,5,84,6468.345,1,103,110
565,5,85,3401.716,-1,90,80
566,5,86,5120.399,-1,80,72
567,5,87,3429.894,-1,93,80
568,5,88,2685.014,1,80,90
569,5,89,3295.057,-1,88,80
570,5,90,2767.752,-1,80,70
571,5,91,6210.28,1,80,93
572,5,92,6286.696,1,82,80
573,5,93,2773.192,-1,50,41
574,5,94,5131.492,1,96,110
575,5,95,5182.951,1,80,85
576,5,96,3509.371,-1,60,50
577,5,97,5524.318,1,41,50
578,5,98,3216.242,-1,110,96
579,5,99,4535.487,-1,72,80
580,5,100,3339.644,-1,49,50
581,5,101,3696.722,1,43,50
582,5,102,9921.861,1,51,50
583,5,103,4966.261,-1,112,110
584,5,104,3274.713,1,40,50
585,5,105,3353.705,-1,50,51
586,5,106,2880.162000000001,1,85,80
587,5,107,5744.953,1,50,49
588,5,108,7705.144,-1,50,43
589,5,109,5349.143,-1,80,82
590,5,110,1684.1270000000006,1,50,60
591,5,111,8920.318000000001,1,53,50
592,5,112,3929.479,-1,122,110
593,5,113,4745.499,1,67,80
594,5,114,7090.406999999997,1,80,67
595,5,115,2844.463,1,70,80
596,5,116,3887.278,1,110,122
597,5,117,3029.146,1,110,115
598,5,118,4561.733,1,110,112
599,5,119,3030.526,-1,110,103
600,6,0,4851.797000000001,1,110,131
601,6,1,3312.908,1,47,50
602,6,2,4002.002,-1,50,44
603,6,3,3162.02,1,57,50
604,6,4,2004.751,1,42,50
605,6,5,4362.118,1,108,110
606,6,6,3420.4,1,78,80
607,6,7,2673.063,-1,110,92
608,6,8,7952.5,1,50,48
609,6,9,3058.378,1,110,101
610,6,10,1738.02,1,46,50
611,6,11,5138.1579999999985,1,80,83
612,6,12,1388.854,1,50,56
613,6,13,6180.061,1,50,47
614,6,14,2672.362,1,110,124
615,6,15,3024.093,-1,91,80
616,6,16,3066.804,1,64,80
617,6,17,3916.881,-1,83,80
618,6,18,3402.134,-1,101,110
619,6,19,3214.156,-1,56,50
620,6,20,2321.735,-1,50,42
621,6,21,5081.537,-1,110,117
622,6,22,2524.934,-1,77,80
623,6,23,3137.088,1,80,91
624,6,24,2415.087,1,44,50
625,6,25,3210.695,1,50,57
626,6,26,2546.444,-1,50,46
627,6,27,2899.148,1,110,108
628,6,28,5130.035,-1,133,110
629,6,29,2914.8,-1,131,110
630,6,30,4271.251,-1,126,110
631,6,31,3288.96,1,110,133
632,6,32,2520.065,-1,110,126
633,6,33,2498.831,1,48,50
634,6,34,4839.608,-1,80,77
635,6,35,2739.551,-1,117,110
636,6,36,2809.392000000001,-1,80,64
637,6,37,3378.269,1,80,78
638,6,38,2938.868,1,124,110
639,6,39,2794.449,1,92,110
640,6,40,1976.739,-1,128,110
641,6,41,2004.993,1,50,58
642,6,42,4613.913,-1,54,50
643,6,43,1711.7420000000006,1,80,69
644,6,44,4627.032,1,105,110
645,6,45,5225.785,-1,55,50
646,6,46,2770.914,-1,96,80
647,6,47,3621.255,1,80,75
648,6,48,4006.095,1,110,128
649,6,49,3613.889,-1,59,50
650,6,50,2647.951,-1,110,119
651,6,51,2386.248,1,52,50
652,6,52,5160.542,1,58,50
653,6,53,2065.98,-1,119,110
654,6,54,2924.2790000000005,-1,74,80
655,6,55,2003.695,-1,86,80
656,6,56,1363.7910000000004,1,66,80
657,6,57,2217.916,1,50,59
658,6,58,1400.724,1,94,110
659,6,59,1797.961,-1,110,87
660,6,60,2228.883,1,75,80
661,6,61,3844.088,-1,50,45
662,6,62,3052.768,1,89,110
663,6,63,2088.88,1,80,94
664,6,64,3037.557,-1,110,98
665,6,65,2712.239,-1,94,80
666,6,66,1593.224,-1,110,94
667,6,67,1890.398,-1,80,66
668,6,68,2797.303,1,50,54
669,6,69,3297.712,-1,98,110
670,6,70,2174.46,1,50,52
671,6,71,1800.0410000000006,-1,110,89
672,6,72,1699.086,1,87,110
673,6,73,3231.459000000001,-1,110,105
674,6,74,2290.637,1,80,96
675,6,75,3646.764,1,80,86
676,6,76,3965.336,1,50,55
677,6,77,3670.988,1,80,74
678,6,78,1861.353,1,45,50
679,6,79,3099.9709999999995,1,69,80
680,6,80,2219.093,1,50,53
681,6,81,1555.681,-1,50,40
682,6,82,2286.628,1,80,88
683,6,83,1884.333,-1,115,110
684,6,84,3377.466,1,103,110
685,6,85,2420.207000000001,-1,90,80
686,6,86,2573.202,-1,80,72
687,6,87,1927.552,-1,93,80
688,6,88,1923.274,1,80,90
689,6,89,2021.136,1,88,80
690,6,90,1993.843,-1,80,70
691,6,91,3532.94,1,80,93
692,6,92,2024.598,-1,82,80
693,6,93,2658.451,-1,50,41
694,6,94,2239.484,1,96,110
695,6,95,1283.366,1,80,85
696,6,96,4467.623,1,60,50
697,6,97,1179.067,1,41,50
698,6,98,4555.062,1,110,96
699,6,99,1342.918,1,72,80
700,6,100,1767.813,1,49,50
701,6,101,2081.146,1,43,50
702,6,102,1579.585,1,51,50
703,6,103,2602.75,1,112,110
704,6,104,1439.3429999999994,1,40,50
705,6,105,1198.59,1,50,51
706,6,106,1701.021,-1,85,80
707,6,107,2031.543,1,50,49
708,6,108,2616.971,-1,50,43
709,6,109,2551.144,-1,80,82
710,6,110,1199.081,1,50,60
711,6,111,3041.209000000001,-1,53,50
712,6,112,3468.601,1,122,110
713,6,113,1921.719,1,67,80
714,6,114,2037.211,-1,80,67
715,6,115,2503.706,1,70,80
716,6,116,2870.153,1,110,122
717,6,117,1684.625,1,110,115
718,6,118,2492.483,1,110,112
719,6,119,5907.275,-1,110,103
720,7,0,4083.058,1,110,131
721,7,1,4313.189,1,47,50
722,7,2,11158.922,-1,50,44
723,7,3,5597.954000000002,-1,57,50
724,7,4,1564.9229999999998,1,42,50
725,7,5,15107.624,1,108,110
726,7,6,9450.808,-1,78,80
727,7,7,4452.746,-1,110,92
728,7,8,1721.744,1,50,48
729,7,9,11827.374,-1,110,101
730,7,10,3334.369,1,46,50
731,7,11,2647.196,1,80,83
732,7,12,1496.54,1,50,56
733,7,13,5530.4119999999975,-1,50,47
734,7,14,9395.325,-1,110,124
735,7,15,11928.201,-1,91,80
736,7,16,1513.154,1,64,80
737,7,17,2556.452,1,83,80
738,7,18,8147.533,1,101,110
739,7,19,3727.561,-1,56,50
740,7,20,3034.284,1,50,42
741,7,21,8183.8269999999975,1,110,117
742,7,22,2979.43,1,77,80
743,7,23,1699.13,1,80,91
744,7,24,2417.411,1,44,50
745,7,25,4118.085,1,50,57
746,7,26,12443.438999999995,1,50,46
747,7,27,3872.137,1,110,108
748,7,28,7794.385,1,133,110
749,7,29,15631.356000000002,-1,131,110
750,7,30,15260.773,1,126,110
751,7,31,3851.631,1,110,133
752,7,32,3440.122000000001,1,110,126
753,7,33,2026.291,1,48,50
754,7,34,3003.111,1,80,77
755,7,35,11883.827,-1,117,110
756,7,36,2465.224,-1,80,64
757,7,37,4102.412,1,80,78
758,7,38,5583.2980000000025,-1,124,110
759,7,39,2509.03,1,92,110
760,7,40,4146.132000000001,-1,128,110
761,7,41,5066.16,1,50,58
762,7,42,2065.108,1,54,50
763,7,43,2471.3520000000008,-1,80,69
764,7,44,14248.641,-1,105,110
765,7,45,7423.446999999999,-1,55,50
766,7,46,5118.518,1,96,80
767,7,47,7975.717,1,80,75
768,7,48,12748.498,1,110,128
769,7,49,1561.601,1,59,50
770,7,50,2412.444,1,110,119
771,7,51,4049.958,-1,52,50
772,7,52,6057.979,-1,58,50
773,7,53,5368.815,1,119,110
774,7,54,2718.774000000001,1,74,80
775,7,55,4263.372,1,86,80
776,7,56,1263.261,1,66,80
777,7,57,1384.323,1,50,59
778,7,58,3093.112,1,94,110
779,7,59,4106.6579999999985,-1,110,87
780,7,60,8186.085,1,75,80
781,7,61,13449.288,1,50,45
782,7,62,3480.991,1,89,110
783,7,63,3189.641,1,80,94
784,7,64,2569.138,-1,110,98
785,7,65,13104.227,-1,94,80
786,7,66,2316.53,-1,110,94
787,7,67,2093.2870000000007,-1,80,66
788,7,68,4197.348,-1,50,54
789,7,69,1885.133,1,98,110
790,7,70,2367.676,1,50,52
791,7,71,2318.676,-1,110,89
792,7,72,2718.215,1,87,110
793,7,73,4299.052,-1,110,105
794,7,74,4727.753,1,80,96
795,7,75,2908.156,1,80,86
796,7,76,1443.693,1,50,55
797,7,77,2914.18,-1,80,74
798,7,78,5322.768,1,45,50
799,7,79,2847.647,1,69,80
800,7,80,4640.823,-1,50,53
801,7,81,6168.6169999999975,-1,50,40
802,7,82,1488.7679999999998,1,80,88
803,7,83,4667.444,1,115,110
804,7,84,3948.767,1,103,110
805,7,85,5512.26,-1,90,80
806,7,86,2251.195,1,80,72
807,7,87,1813.576,-1,93,80
808,7,88,2808.5040000000013,1,80,90
809,7,89,2526.192,1,88,80
810,7,90,2766.042,1,80,70
811,7,91,1804.396,1,80,93
812,7,92,4606.689,-1,82,80
813,7,93,2456.038,1,50,41
814,7,94,1383.182,1,96,110
815,7,95,2131.568,1,80,85
816,7,96,12090.306,-1,60,50
817,7,97,3136.882,1,41,50
818,7,98,2550.215,1,110,96
819,7,99,1454.421,1,72,80
820,7,100,3341.0820000000012,-1,49,50
821,7,101,1343.957,1,43,50
822,7,102,3425.812,-1,51,50
823,7,103,2157.652,-1,112,110
824,7,104,1216.547,1,40,50
825,7,105,3568.159,-1,50,51
826,7,106,3399.878,-1,85,80
827,7,107,3012.47,1,50,49
828,7,108,2355.175,1,50,43
829,7,109,3481.451,-1,80,82
830,7,110,1541.305,1,50,60
831,7,111,3198.916,-1,53,50
832,7,112,1410.329,1,122,110
833,7,113,1376.219,1,67,80
834,7,114,2630.958,-1,80,67
835,7,115,1467.97,1,70,80
836,7,116,1521.71,1,110,122
837,7,117,1211.751,1,110,115
838,7,118,2661.007,1,110,112
839,7,119,7486.021,-1,110,103
840,8,0,4993.562,1,110,131
841,8,1,3795.373,1,47,50
842,8,2,4768.419,1,50,44
843,8,3,7074.001,-1,57,50
844,8,4,7010.269,1,42,50
845,8,5,3297.75,1,108,110
846,8,6,2028.401,-1,78,80
847,8,7,7001.148,-1,110,92
848,8,8,1904.903,-1,50,48
849,8,9,6137.828,-1,110,101
850,8,10,1789.591,1,46,50
851,8,11,1607.714,1,80,83
852,8,12,1430.6329999999994,1,50,56
853,8,13,1845.803,-1,50,47
854,8,14,2698.17,-1,110,124
855,8,15,2192.458,1,91,80
856,8,16,2213.166,1,64,80
857,8,17,2714.831,-1,83,80
858,8,18,3723.87,-1,101,110
859,8,19,2246.661,-1,56,50
860,8,20,3688.427,-1,50,42
861,8,21,1567.154,1,110,117
862,8,22,2141.277,-1,77,80
863,8,23,2819.997000000001,1,80,91
864,8,24,1751.997,1,44,50
865,8,25,1681.4260000000006,1,50,57
866,8,26,3260.446,1,50,46
867,8,27,2745.432,1,110,108
868,8,28,3064.343,1,133,110
869,8,29,3042.958,-1,131,110
870,8,30,2689.534,-1,126,110
871,8,31,3982.511,1,110,133
872,8,32,1819.573,1,110,126
873,8,33,6171.741,1,48,50
874,8,34,1524.247,1,80,77
875,8,35,4600.759,1,117,110
876,8,36,2025.769,-1,80,64
877,8,37,1791.142,1,80,78
878,8,38,2225.989,-1,124,110
879,8,39,2391.515,-1,92,110
880,8,40,3815.021,1,128,110
881,8,41,1408.148,1,50,58
882,8,42,1627.54,1,54,50
883,8,43,2892.416,-1,80,69
884,8,44,2685.763,1,105,110
885,8,45,6899.668000000002,-1,55,50
886,8,46,3338.1490000000013,1,96,80
887,8,47,5372.894,-1,80,75
888,8,48,8255.298,1,110,128
889,8,49,2263.993,-1,59,50
890,8,50,2397.12,1,110,119
891,8,51,2290.511,-1,52,50
892,8,52,3064.158,-1,58,50
893,8,53,3191.691,1,119,110
894,8,54,1773.727,1,74,80
895,8,55,5151.366,-1,86,80
896,8,56,3350.238,1,66,80
897,8,57,1429.8670000000006,1,50,59
898,8,58,2588.006,1,94,110
899,8,59,3949.258,1,110,87
900,8,60,2819.317,-1,75,80
901,8,61,2724.465,-1,50,45
902,8,62,1768.763,1,89,110
903,8,63,2662.831,1,80,94
904,8,64,2720.735,-1,110,98
905,8,65,2168.314,-1,94,80
906,8,66,2177.405,-1,110,94
907,8,67,2734.053,1,80,66
908,8,68,7071.145,1,50,54
909,8,69,3290.315,1,98,110
910,8,70,1529.6629999999998,1,50,52
911,8,71,6277.281999999997,-1,110,89
912,8,72,3580.267000000001,1,87,110
913,8,73,2067.7270000000008,-1,110,105
914,8,74,2687.155,1,80,96
915,8,75,2634.212,1,80,86
916,8,76,5321.699000000001,1,50,55
917,8,77,6242.055,-1,80,74
918,8,78,3841.281,1,45,50
919,8,79,1794.3270000000002,1,69,80
920,8,80,3558.772,1,50,53
921,8,81,2050.16,-1,50,40
922,8,82,2111.391,1,80,88
923,8,83,1777.964,1,115,110
924,8,84,2248.647,1,103,110
925,8,85,1563.1270000000006,-1,90,80
926,8,86,2271.978,1,80,72
927,8,87,2260.891,1,93,80
928,8,88,1509.5379999999998,1,80,90
929,8,89,4128.835999999998,1,88,80
930,8,90,1242.251,1,80,70
931,8,91,2094.95,1,80,93
932,8,92,2392.54,1,82,80
933,8,93,2566.652,-1,50,41
934,8,94,1587.263,1,96,110
935,8,95,1428.436,1,80,85
936,8,96,2804.189000000001,1,60,50
937,8,97,2272.403,-1,41,50
938,8,98,2089.807,-1,110,96
939,8,99,2406.058,1,72,80
940,8,100,1395.817,1,49,50
941,8,101,1477.77,1,43,50
942,8,102,1956.009,1,51,50
943,8,103,2400.082000000001,1,112,110
944,8,104,1644.349,1,40,50
945,8,105,2142.379,-1,50,51
946,8,106,2177.221,1,85,80
947,8,107,1539.542,-1,50,49
948,8,108,1636.221,1,50,43
949,8,109,1258.661,1,80,82
950,8,110,1221.12,1,50,60
951,8,111,1365.15,1,53,50
952,8,112,1922.175,-1,122,110
953,8,113,1437.994,1,67,80
954,8,114,2292.136,-1,80,67
955,8,115,2162.836,1,70,80
956,8,116,1459.06,1,110,122
957,8,117,2033.541,-1,110,115
958,8,118,2197.817,1,110,112
959,8,119,3077.0820000000012,-1,110,103
960,9,0,1737.66,1,110,131
961,9,1,1700.417,1,47,50
962,9,2,1476.671,-1,50,44
963,9,3,1643.3270000000002,1,57,50
964,9,4,1397.6760000000006,1,42,50
965,9,5,2087.1220000000008,-1,108,110
966,9,6,1959.917,1,78,80
967,9,7,1866.011,-1,110,92
968,9,8,2345.818,1,50,48
969,9,9,3013.5290000000005,-1,110,101
970,9,10,1952.562,1,46,50
971,9,11,2152.213,-1,80,83
972,9,12,2567.785,-1,50,56
973,9,13,2959.43,1,50,47
974,9,14,2399.982,1,110,124
975,9,15,2534.684,-1,91,80
976,9,16,2663.548,1,64,80
977,9,17,2875.6540000000005,-1,83,80
978,9,18,2027.183,-1,101,110
979,9,19,2750.827,1,56,50
980,9,20,2205.375,1,50,42
981,9,21,1977.979,1,110,117
982,9,22,1980.279,-1,77,80
983,9,23,1653.0770000000002,1,80,91
984,9,24,1485.164,1,44,50
985,9,25,1783.6529999999998,1,50,57
986,9,26,1855.097,-1,50,46
987,9,27,2431.437,1,110,108
988,9,28,2048.157,1,133,110
989,9,29,1933.937,-1,131,110
990,9,30,1995.005,-1,126,110
991,9,31,1805.838,1,110,133
992,9,32,1846.312,1,110,126
993,9,33,1751.6529999999998,1,48,50
994,9,34,2292.031,-1,80,77
995,9,35,2356.063,-1,117,110
996,9,36,1909.306,-1,80,64
997,9,37,1744.836,1,80,78
998,9,38,2723.051,-1,124,110
999,9,39,2331.944,1,92,110
1000,9,40,1749.954,-1,128,110
1001,9,41,1325.432,1,50,58
1002,9,42,1223.842,-1,54,50
1003,9,43,1031.857,-1,80,69
1004,9,44,1167.827,-1,105,110
1005,9,45,1270.056,1,55,50
1006,9,46,1048.826,-1,96,80
1007,9,47,1234.482,-1,80,75
1008,9,48,1125.772,1,110,128
1009,9,49,1120.901,1,59,50
1010,9,50,1388.5870000000002,1,110,119
1011,9,51,1211.419,1,52,50
1012,9,52,1755.945,1,58,50
1013,9,53,1567.646,1,119,110
1014,9,54,1723.37,-1,74,80
1015,9,55,1767.759,-1,86,80
1016,9,56,1512.466,1,66,80
1017,9,57,1487.6629999999998,1,50,59
1018,9,58,1124.705,1,94,110
1019,9,59,1128.118,-1,110,87
1020,9,60,1062.346,-1,75,80
1021,9,61,1247.627,-1,50,45
1022,9,62,1209.127,-1,89,110
1023,9,63,2503.048,-1,80,94
1024,9,64,2142.45,-1,110,98
1025,9,65,3268.297,-1,94,80
1026,9,66,1632.447,-1,110,94
1027,9,67,1724.622,-1,80,66
1028,9,68,1463.996,1,50,54
1029,9,69,1469.6329999999994,-1,98,110
1030,9,70,1770.168,1,50,52
1031,9,71,1734.9779999999994,-1,110,89
1032,9,72,1830.813,1,87,110
1033,9,73,1773.786,-1,110,105
1034,9,74,1453.213,1,80,96
1035,9,75,1650.519,-1,80,86
1036,9,76,1518.317,1,50,55
1037,9,77,1905.45,-1,80,74
1038,9,78,1860.143,-1,45,50
1039,9,79,1720.63,-1,69,80
1040,9,80,1672.766,1,50,53
1041,9,81,1211.748,-1,50,40
1042,9,82,1422.886,1,80,88
1043,9,83,1275.274,-1,115,110
1044,9,84,1023.782,-1,103,110
1045,9,85,1566.8429999999994,-1,90,80
1046,9,86,1352.63,-1,80,72
1047,9,87,1244.595,-1,93,80
1048,9,88,1387.496,1,80,90
1049,9,89,1483.815,-1,88,80
1050,9,90,1461.872,-1,80,70
1051,9,91,1572.616,1,80,93
1052,9,92,2036.769,1,82,80
1053,9,93,1693.0510000000006,1,50,41
1054,9,94,1715.57,-1,96,110
1055,9,95,1660.9160000000006,1,80,85
1056,9,96,1437.479,-1,60,50
1057,9,97,1768.642,1,41,50
1058,9,98,1623.335,-1,110,96
1059,9,99,1826.331,-1,72,80
1060,9,100,1082.646,1,49,50
1061,9,101,1115.761,1,43,50
1062,9,102,1659.308,-1,51,50
1063,9,103,1612.594,-1,112,110
1064,9,104,2141.188,1,40,50
1065,9,105,1843.804,1,50,51
1066,9,106,3760.222,-1,85,80
1067,9,107,1652.6729999999998,1,50,49
1068,9,108,1279.538,-1,50,43
1069,9,109,1342.9229999999998,1,80,82
1070,9,110,1662.773,-1,50,60
1071,9,111,2508.084,-1,53,50
1072,9,112,3754.656,-1,122,110
1073,9,113,1307.697,1,67,80
1074,9,114,1206.212,-1,80,67
1075,9,115,1185.462,1,70,80
1076,9,116,1392.939,-1,110,122
1077,9,117,1522.491,-1,110,115
1078,9,118,3121.925,-1,110,112
1079,9,119,1837.339,-1,110,103
1080,10,0,2438.639,1,110,131
1081,10,1,1326.879,1,47,50
1082,10,2,2008.897,-1,50,44
1083,10,3,3251.427,-1,57,50
1084,10,4,2833.729000000001,1,42,50
1085,10,5,1694.866,-1,108,110
1086,10,6,1296.653,-1,78,80
1087,10,7,1529.774,-1,110,92
1088,10,8,1082.362,1,50,48
1089,10,9,3108.467,-1,110,101
1090,10,10,4797.563,1,46,50
1091,10,11,3431.0240000000013,-1,80,83
1092,10,12,1124.577,1,50,56
1093,10,13,4441.4540000000015,-1,50,47
1094,10,14,4632.202,1,110,124
1095,10,15,1632.6129999999994,-1,91,80
1096,10,16,4819.272,1,64,80
1097,10,17,3039.931,-1,83,80
1098,10,18,3590.0440000000012,1,101,110
1099,10,19,2701.356,1,56,50
1100,10,20,1980.89,-1,50,42
1101,10,21,4704.146,1,110,117
1102,10,22,2282.415,1,77,80
1103,10,23,2126.651,1,80,91
1104,10,24,2219.879,1,44,50
1105,10,25,1361.906,1,50,57
1106,10,26,1211.06,1,50,46
1107,10,27,5025.44,-1,110,108
1108,10,28,1668.819,-1,133,110
1109,10,29,1902.992,-1,131,110
1110,10,30,2614.701,-1,126,110
1111,10,31,2018.169,1,110,133
1112,10,32,3067.38,1,110,126
1113,10,33,2779.135,1,48,50
1114,10,34,2203.819,1,80,77
1115,10,35,1712.826,-1,117,110
1116,10,36,1686.734,-1,80,64
1117,10,37,1807.809,-1,80,78
1118,10,38,1473.981,-1,124,110
1119,10,39,2004.33,1,92,110
1120,10,40,1421.8570000000002,-1,128,110
1121,10,41,2683.921,1,50,58
1122,10,42,2971.482,-1,54,50
1123,10,43,3289.845,-1,80,69
1124,10,44,1787.366,-1,105,110
1125,10,45,1495.821,-1,55,50
1126,10,46,1312.34,-1,96,80
1127,10,47,1617.595,-1,80,75
1128,10,48,2641.421,1,110,128
1129,10,49,3239.75,-1,59,50
1130,10,50,4830.474,1,110,119
1131,10,51,5707.6309999999985,-1,52,50
1132,10,52,3165.677,-1,58,50
1133,10,53,1835.798,-1,119,110
1134,10,54,2513.012,1,74,80
1135,10,55,1628.7179999999994,-1,86,80
1136,10,56,2175.323,1,66,80
1137,10,57,2798.844,1,50,59
1138,10,58,1538.526,-1,94,110
1139,10,59,1389.557,-1,110,87
1140,10,60,1704.155,1,75,80
1141,10,61,2217.502,1,50,45
1142,10,62,5787.017,1,89,110
1143,10,63,2518.364,1,80,94
1144,10,64,4822.179,-1,110,98
1145,10,65,2906.668,-1,94,80
1146,10,66,1577.21,-1,110,94
1147,10,67,2177.234,-1,80,66
1148,10,68,1134.675,1,50,54
1149,10,69,2555.015,1,98,110
1150,10,70,3902.862,1,50,52
1151,10,71,2540.732,-1,110,89
1152,10,72,3994.772,1,87,110
1153,10,73,6138.929,1,110,105
1154,10,74,1443.82,-1,80,96
1155,10,75,7491.703,-1,80,86
1156,10,76,2171.036,1,50,55
1157,10,77,5706.276999999999,1,80,74
1158,10,78,3753.437,1,45,50
1159,10,79,1171.933,1,69,80
1160,10,80,1227.903,1,50,53
1161,10,81,2017.013,-1,50,40
1162,10,82,2611.379,1,80,88
1163,10,83,2512.763,1,115,110
1164,10,84,1766.796,1,103,110
1165,10,85,1995.841,-1,90,80
1166,10,86,1143.188,-1,80,72
1167,10,87,1491.604,1,93,80
1168,10,88,2656.389,1,80,90
1169,10,89,1688.155,-1,88,80
1170,10,90,1190.659,-1,80,70
1171,10,91,2803.53,1,80,93
1172,10,92,2437.721,1,82,80
1173,10,93,3223.498,-1,50,41
1174,10,94,2559.688,1,96,110
1175,10,95,3473.292,1,80,85
1176,10,96,2095.43,-1,60,50
1177,10,97,3955.994,-1,41,50
1178,10,98,3932.331,1,110,96
1179,10,99,1386.995,1,72,80
1180,10,100,2313.741,-1,49,50
1181,10,101,3087.358,1,43,50
1182,10,102,2405.645,-1,51,50
1183,10,103,5096.262,1,112,110
1184,10,104,4183.426,1,40,50
1185,10,105,1491.33,-1,50,51
1186,10,106,1781.244,-1,85,80
1187,10,107,11001.154,1,50,49
1188,10,108,5732.735,-1,50,43
1189,10,109,4565.044,-1,80,82
1190,10,110,1287.406,1,50,60
1191,10,111,1760.896,-1,53,50
1192,10,112,6325.959,-1,122,110
1193,10,113,3826.767,1,67,80
1194,10,114,2005.404,-1,80,67
1195,10,115,1723.4920000000006,1,70,80
1196,10,116,3657.047,1,110,122
1197,10,117,8016.802,-1,110,115
1198,10,118,2172.586,-1,110,112
1199,10,119,1299.215,-1,110,103
1200,11,0,8564.741,1,110,131
1201,11,1,13211.21,-1,47,50
1202,11,2,3541.179,1,50,44
1203,11,3,3412.393,-1,57,50
1204,11,4,4174.505,1,42,50
1205,11,5,7675.66,1,108,110
1206,11,6,14244.499,-1,78,80
1207,11,7,5214.058,-1,110,92
1208,11,8,6897.868,-1,50,48
1209,11,9,1021.941,-1,110,101
1210,11,10,13861.923,-1,46,50
1211,11,11,4414.5459999999985,1,80,83
1212,11,12,13654.764,1,50,56
1213,11,13,3961.79,1,50,47
1214,11,14,3624.73,1,110,124
1215,11,15,18057.753,-1,91,80
1216,11,16,2921.995,1,64,80
1217,11,17,9394.374,-1,83,80
1218,11,18,12000.368,1,101,110
1219,11,19,5792.8830000000025,1,56,50
1220,11,20,11095.371,1,50,42
1221,11,21,4784.801,-1,110,117
1222,11,22,1362.3629999999996,1,77,80
1223,11,23,7178.638000000001,1,80,91
1224,11,24,6065.669,-1,44,50
1225,11,25,8251.75,1,50,57
1226,11,26,2260.1910000000007,1,50,46
1227,11,27,5917.833000000001,1,110,108
1228,11,28,3524.994,-1,133,110
1229,11,29,16783.433,-1,131,110
1230,11,30,10903.898,1,126,110
1231,11,31,3587.717,1,110,133
1232,11,32,7358.151999999999,1,110,126
1233,11,33,9287.089,-1,48,50
1234,11,34,8693.901,-1,80,77
1235,11,35,4052.565,-1,117,110
1236,11,36,6860.493,-1,80,64
1237,11,37,9173.561,-1,80,78
1238,11,38,15333.791,-1,124,110
1239,11,39,17237.613,1,92,110
1240,11,40,4100.337,-1,128,110
1241,11,41,4154.866,1,50,58
1242,11,42,3758.666,-1,54,50
1243,11,43,7170.361999999999,-1,80,69
1244,11,44,13068.882,1,105,110
1245,11,45,7234.331999999998,1,55,50
1246,11,46,3331.992,-1,96,80
1247,11,47,9521.081,-1,80,75
1248,11,48,5705.359,1,110,128
1249,11,49,3063.55,-1,59,50
1250,11,50,2528.952,1,110,119
1251,11,51,4839.29,1,52,50
1252,11,52,3404.93,-1,58,50
1253,11,53,4739.4079999999985,-1,119,110
1254,11,54,4685.584,1,74,80
1255,11,55,3521.992,-1,86,80
1256,11,56,5351.809,-1,66,80
1257,11,57,4520.589,1,50,59
1258,11,58,3687.303,1,94,110
1259,11,59,7342.482,-1,110,87
1260,11,60,4831.263,1,75,80
1261,11,61,11852.555,1,50,45
1262,11,62,14659.758,1,89,110
1263,11,63,3897.805,1,80,94
1264,11,64,3527.564000000001,1,110,98
1265,11,65,2773.033,-1,94,80
1266,11,66,2300.7,-1,110,94
1267,11,67,14388.758,-1,80,66
1268,11,68,2212.062,1,50,54
1269,11,69,2736.71,1,98,110
1270,11,70,23605.39,1,50,52
1271,11,71,2208.33,-1,110,89
1272,11,72,3031.786,1,87,110
1273,11,73,2181.58,-1,110,105
1274,11,74,2422.26,1,80,96
1275,11,75,5657.024,-1,80,86
1276,11,76,1928.941,1,50,55
1277,11,77,5892.906,1,80,74
1278,11,78,3976.784,1,45,50
1279,11,79,2766.983,1,69,80
1280,11,80,2360.284,1,50,53
1281,11,81,5328.319,1,50,40
1282,11,82,2798.265,1,80,88
1283,11,83,16547.093,-1,115,110
1284,11,84,3215.762,-1,103,110
1285,11,85,4805.152,-1,90,80
1286,11,86,3876.601,1,80,72
1287,11,87,3662.945,1,93,80
1288,11,88,7214.56,1,80,90
1289,11,89,2799.691,-1,88,80
1290,11,90,3203.563,-1,80,70
1291,11,91,2004.114,1,80,93
1292,11,92,6071.469,-1,82,80
1293,11,93,1447.59,1,50,41
1294,11,94,2234.9210000000007,1,96,110
1295,11,95,3708.76,1,80,85
1296,11,96,3523.153,-1,60,50
1297,11,97,7845.473000000001,-1,41,50
1298,11,98,5287.708000000001,-1,110,96
1299,11,99,1772.283,1,72,80
1300,11,100,2435.127,-1,49,50
1301,11,101,1368.463,1,43,50
1302,11,102,2530.144,-1,51,50
1303,11,103,5170.237,-1,112,110
1304,11,104,14426.898,-1,40,50
1305,11,105,10303.299,1,50,51
1306,11,106,5913.5,1,85,80
1307,11,107,8980.201,-1,50,49
1308,11,108,2652.93,1,50,43
1309,11,109,3262.577,1,80,82
1310,11,110,9705.507,1,50,60
1311,11,111,4653.63,1,53,50
1312,11,112,2075.242,-1,122,110
1313,11,113,1184.873,1,67,80
1314,11,114,10564.16,1,80,67
1315,11,115,1824.847,1,70,80
1316,11,116,2398.761,-1,110,122
1317,11,117,4017.863,-1,110,115
1318,11,118,2069.535,-1,110,112
1319,11,119,6801.251,1,110,103
1320,12,0,5012.3809999999985,1,110,131
1321,12,1,4646.738,1,47,50
1322,12,2,4092.891,1,50,44
1323,12,3,2190.67,1,57,50
1324,12,4,5622.538000000001,1,42,50
1325,12,5,2724.52,-1,108,110
1326,12,6,2449.388,1,78,80
1327,12,7,1639.989,-1,110,92
1328,12,8,3432.606,-1,50,48
1329,12,9,2934.281,-1,110,101
1330,12,10,1190.89,1,46,50
1331,12,11,1767.183,1,80,83
1332,12,12,1294.651,1,50,56
1333,12,13,2238.074,-1,50,47
1334,12,14,6584.98,-1,110,124
1335,12,15,1428.599,1,91,80
1336,12,16,1490.428,1,64,80
1337,12,17,2125.862,1,83,80
1338,12,18,1668.862,1,101,110
1339,12,19,3030.588,-1,56,50
1340,12,20,4424.91,-1,50,42
1341,12,21,2969.178,1,110,117
1342,12,22,1303.4489999999996,1,77,80
1343,12,23,1357.856,1,80,91
1344,12,24,2354.092,1,44,50
1345,12,25,2004.533,1,50,57
1346,12,26,3356.951,-1,50,46
1347,12,27,1521.511,1,110,108
1348,12,28,1888.712,1,133,110
1349,12,29,3473.523,-1,131,110
1350,12,30,1729.091,1,126,110
1351,12,31,2395.127,1,110,133
1352,12,32,1582.4129999999998,1,110,126
1353,12,33,3903.343,1,48,50
1354,12,34,2663.144,-1,80,77
1355,12,35,1934.49,1,117,110
1356,12,36,2405.19,-1,80,64
1357,12,37,1545.105,1,80,78
1358,12,38,2604.714,-1,124,110
1359,12,39,1120.327,1,92,110
1360,12,40,2319.583,-1,128,110
1361,12,41,2658.008,1,50,58
1362,12,42,4644.769,-1,54,50
1363,12,43,2336.904,-1,80,69
1364,12,44,2232.262,1,105,110
1365,12,45,2404.233,-1,55,50
1366,12,46,3773.941,-1,96,80
1367,12,47,1389.338,-1,80,75
1368,12,48,1345.217,1,110,128
1369,12,49,2517.299,-1,59,50
1370,12,50,1667.654,1,110,119
1371,12,51,2896.692,-1,52,50
1372,12,52,1162.424,1,58,50
1373,12,53,1708.8370000000002,-1,119,110
1374,12,54,1290.039,1,74,80
1375,12,55,1770.544,1,86,80
1376,12,56,1432.934,1,66,80
1377,12,57,3000.278,1,50,59
1378,12,58,1799.973,1,94,110
1379,12,59,1775.2,-1,110,87
1380,12,60,1256.005,1,75,80
1381,12,61,3209.321,-1,50,45
1382,12,62,1909.739,1,89,110
1383,12,63,1389.695,1,80,94
1384,12,64,1464.614,1,110,98
1385,12,65,2393.765,1,94,80
1386,12,66,1465.825,1,110,94
1387,12,67,1234.519,1,80,66
1388,12,68,2530.536,1,50,54
1389,12,69,1402.307,1,98,110
1390,12,70,1189.071,1,50,52
1391,12,71,2251.736,-1,110,89
1392,12,72,1241.553,1,87,110
1393,12,73,1491.138,1,110,105
1394,12,74,1117.673,1,80,96
1395,12,75,1573.281,1,80,86
1396,12,76,4591.682,1,50,55
1397,12,77,1523.109,1,80,74
1398,12,78,1425.348,1,45,50
1399,12,79,1289.357,1,69,80
1400,12,80,1246.182,-1,50,53
1401,12,81,2715.792,1,50,40
1402,12,82,1603.725,1,80,88
1403,12,83,3490.857,1,115,110
1404,12,84,2474.318,1,103,110
1405,12,85,3312.936,-1,90,80
1406,12,86,2107.919,1,80,72
1407,12,87,1611.534,-1,93,80
1408,12,88,1120.909,1,80,90
1409,12,89,1756.3470000000002,-1,88,80
1410,12,90,1201.742,1,80,70
1411,12,91,1355.249,1,80,93
1412,12,92,1976.005,1,82,80
1413,12,93,3158.077,-1,50,41
1414,12,94,1300.309,1,96,110
1415,12,95,1160.845,1,80,85
1416,12,96,1980.262,-1,60,50
1417,12,97,1208.765,1,41,50
1418,12,98,1475.131,-1,110,96
1419,12,99,1204.252,1,72,80
1420,12,100,1540.564,-1,49,50
1421,12,101,2375.858,1,43,50
1422,12,102,3069.247000000001,1,51,50
1423,12,103,3198.568,1,112,110
1424,12,104,1931.763,1,40,50
1425,12,105,1189.781,1,50,51
1426,12,106,3198.531,-1,85,80
1427,12,107,1332.856,1,50,49
1428,12,108,2105.839,1,50,43
1429,12,109,2128.659,1,80,82
1430,12,110,1234.054,1,50,60
1431,12,111,1231.836,1,53,50
1432,12,112,2939.993,1,122,110
1433,12,113,1417.895,1,67,80
1434,12,114,1590.047,1,80,67
1435,12,115,1628.809,1,70,80
1436,12,116,1363.523,1,110,122
1437,12,117,1978.787,1,110,115
1438,12,118,1261.728,1,110,112
1439,12,119,2846.988,-1,110,103
1440,13,0,4728.5340000000015,1,110,131
1441,13,1,4777.03,1,47,50
1442,13,2,5237.59,-1,50,44
1443,13,3,4732.615,-1,57,50
1444,13,4,5130.834,1,42,50
1445,13,5,4248.016,-1,108,110
1446,13,6,4516.884,1,78,80
1447,13,7,4790.279,-1,110,92
1448,13,8,3812.761,1,50,48
1449,13,9,4843.772,1,110,101
1450,13,10,5095.775,-1,46,50
1451,13,11,4325.052,1,80,83
1452,13,12,4924.589,1,50,56
1453,13,13,4976.991,1,50,47
1454,13,14,5782.88,1,110,124
1455,13,15,6755.802,1,91,80
1456,13,16,5654.201,1,64,80
1457,13,17,5400.0340000000015,1,83,80
1458,13,18,4913.412,1,101,110
1459,13,19,6080.446,1,56,50
1460,13,20,6902.097,-1,50,42
1461,13,21,6638.75,-1,110,117
1462,13,22,5702.751,-1,77,80
1463,13,23,3842.298,1,80,91
1464,13,24,5351.669,1,44,50
1465,13,25,6971.184,-1,50,57
1466,13,26,5742.0769999999975,-1,50,46
1467,13,27,4953.392,1,110,108
1468,13,28,5710.593000000003,-1,133,110
1469,13,29,5005.606,-1,131,110
1470,13,30,4991.3,1,126,110
1471,13,31,4425.7559999999985,1,110,133
1472,13,32,3912.845,1,110,126
1473,13,33,5197.845,1,48,50
1474,13,34,4044.83,1,80,77
1475,13,35,6092.637,-1,117,110
1476,13,36,4904.838,-1,80,64
1477,13,37,5516.299,1,80,78
1478,13,38,6759.424,-1,124,110
1479,13,39,3572.406,1,92,110
1480,13,40,5230.636,-1,128,110
1481,13,41,5874.714,1,50,58
1482,13,42,3882.513,-1,54,50
1483,13,43,5160.128,1,80,69
1484,13,44,5214.65,1,105,110
1485,13,45,6416.168000000002,1,55,50
1486,13,46,5839.816,-1,96,80
1487,13,47,5462.825,-1,80,75
1488,13,48,5443.724,1,110,128
1489,13,49,4849.737,-1,59,50
1490,13,50,6404.263000000001,1,110,119
1491,13,51,4603.016,1,52,50
1492,13,52,5106.066,-1,58,50
1493,13,53,6099.7019999999975,1,119,110
1494,13,54,5255.903,1,74,80
1495,13,55,5245.326,1,86,80
1496,13,56,5599.875,1,66,80
1497,13,57,5294.956,1,50,59
1498,13,58,5642.69,1,94,110
1499,13,59,4226.286,-1,110,87
1500,13,60,5756.5459999999985,1,75,80
1501,13,61,4965.766,-1,50,45
1502,13,62,7015.627,1,89,110
1503,13,63,5160.893,1,80,94
1504,13,64,4337.33,-1,110,98
1505,13,65,6132.946999999999,-1,94,80
1506,13,66,4912.862,-1,110,94
1507,13,67,4969.93,-1,80,66
1508,13,68,5976.24,1,50,54
1509,13,69,4317.682,1,98,110
1510,13,70,5316.243,1,50,52
1511,13,71,4742.574000000001,-1,110,89
1512,13,72,3871.821,1,87,110
1513,13,73,4601.964,-1,110,105
1514,13,74,4808.78,1,80,96
1515,13,75,5201.617,1,80,86
1516,13,76,4275.368,-1,50,55
1517,13,77,5999.5,1,80,74
1518,13,78,5505.031,1,45,50
1519,13,79,4913.246,-1,69,80
1520,13,80,4816.5920000000015,1,50,53
1521,13,81,3511.801,-1,50,40
1522,13,82,5224.515,1,80,88
1523,13,83,4567.46,-1,115,110
1524,13,84,6081.765,-1,103,110
1525,13,85,4722.791,1,90,80
1526,13,86,4314.562,-1,80,72
1527,13,87,6493.06,1,93,80
1528,13,88,5079.54,1,80,90
1529,13,89,4872.122,1,88,80
1530,13,90,5923.554,-1,80,70
1531,13,91,5739.7019999999975,-1,80,93
1532,13,92,3609.935,-1,82,80
1533,13,93,4718.206,-1,50,41
1534,13,94,5102.42,1,96,110
1535,13,95,7662.148,1,80,85
1536,13,96,4659.4,1,60,50
1537,13,97,4809.0909999999985,1,41,50
1538,13,98,7848.312,1,110,96
1539,13,99,4250.151,1,72,80
1540,13,100,5007.031,1,49,50
1541,13,101,4118.45,-1,43,50
1542,13,102,5158.058,-1,51,50
1543,13,103,6182.178000000001,-1,112,110
1544,13,104,4159.415,1,40,50
1545,13,105,4275.996,1,50,51
1546,13,106,5795.236,1,85,80
1547,13,107,6365.7959999999985,1,50,49
1548,13,108,5776.521,-1,50,43
1549,13,109,5259.883000000002,1,80,82
1550,13,110,4087.283,1,50,60
1551,13,111,5729.785,-1,53,50
1552,13,112,5653.554,-1,122,110
1553,13,113,4699.603,1,67,80
1554,13,114,5410.811,-1,80,67
1555,13,115,5424.203,1,70,80
1556,13,116,4785.365,1,110,122
1557,13,117,3572.615,-1,110,115
1558,13,118,5652.393,1,110,112
1559,13,119,4758.971,-1,110,103
1560,14,0,2411.837,1,110,131
1561,14,1,2699.638,-1,47,50
1562,14,2,5223.695,-1,50,44
1563,14,3,4476.188,-1,57,50
1564,14,4,2077.934,1,42,50
1565,14,5,7788.119000000002,1,108,110
1566,14,6,4302.3,-1,78,80
1567,14,7,1526.463,-1,110,92
1568,14,8,3183.118,-1,50,48
1569,14,9,3205.175,-1,110,101
1570,14,10,1604.214,1,46,50
1571,14,11,6530.474,1,80,83
1572,14,12,1491.1570000000006,1,50,56
1573,14,13,1333.8729999999996,-1,50,47
1574,14,14,6532.274,-1,110,124
1575,14,15,4038.85,-1,91,80
1576,14,16,2546.243,1,64,80
1577,14,17,4194.065,-1,83,80
1578,14,18,3940.452,-1,101,110
1579,14,19,2702.658,-1,56,50
1580,14,20,4240.585,-1,50,42
1581,14,21,2314.874,-1,110,117
1582,14,22,3636.833,-1,77,80
1583,14,23,1793.3829999999994,1,80,91
1584,14,24,4592.348,1,44,50
1585,14,25,4757.3690000000015,1,50,57
1586,14,26,8235.293,-1,50,46
1587,14,27,6841.092,1,110,108
1588,14,28,2101.964,-1,133,110
1589,14,29,1568.7910000000006,-1,131,110
1590,14,30,2712.183,-1,126,110
1591,14,31,5973.21,1,110,133
1592,14,32,3141.054,1,110,126
1593,14,33,1848.953,1,48,50
1594,14,34,2688.136,-1,80,77
1595,14,35,6172.306,-1,117,110
1596,14,36,3677.141,-1,80,64
1597,14,37,5200.268,-1,80,78
1598,14,38,2072.589,-1,124,110
1599,14,39,4900.0790000000015,1,92,110
1600,14,40,5015.075,-1,128,110
1601,14,41,1367.3629999999996,1,50,58
1602,14,42,2077.351,-1,54,50
1603,14,43,3691.81,-1,80,69
1604,14,44,2172.653,-1,105,110
1605,14,45,3391.115,-1,55,50
1606,14,46,2218.531,-1,96,80
1607,14,47,2659.04,1,80,75
1608,14,48,2667.889,1,110,128
1609,14,49,6196.985,-1,59,50
1610,14,50,5425.233,1,110,119
1611,14,51,2724.3459999999995,-1,52,50
1612,14,52,3105.605,-1,58,50
1613,14,53,10200.481,-1,119,110
1614,14,54,1216.532,1,74,80
1615,14,55,2016.147,-1,86,80
1616,14,56,1319.821,1,66,80
1617,14,57,2841.325,1,50,59
1618,14,58,3073.9440000000004,1,94,110
1619,14,59,1385.729,-1,110,87
1620,14,60,3229.698,-1,75,80
1621,14,61,1760.556,-1,50,45
1622,14,62,3067.113,1,89,110
1623,14,63,1504.947,1,80,94
1624,14,64,4153.062,-1,110,98
1625,14,65,1590.977,-1,94,80
1626,14,66,4050.696,-1,110,94
1627,14,67,1998.507,-1,80,66
1628,14,68,1634.169,-1,50,54
1629,14,69,2040.699,1,98,110
1630,14,70,1735.6029999999994,1,50,52
1631,14,71,3426.046,-1,110,89
1632,14,72,1302.233,1,87,110
1633,14,73,1644.208,-1,110,105
1634,14,74,2063.859,1,80,96
1635,14,75,4972.136,1,80,86
1636,14,76,1493.973,1,50,55
1637,14,77,9061.277,-1,80,74
1638,14,78,4308.776,1,45,50
1639,14,79,1492.819,1,69,80
1640,14,80,7810.219,-1,50,53
1641,14,81,4358.031,-1,50,40
1642,14,82,2082.529,-1,80,88
1643,14,83,4631.005,-1,115,110
1644,14,84,3551.473,-1,103,110
1645,14,85,5933.998000000001,-1,90,80
1646,14,86,3048.616,-1,80,72
1647,14,87,2389.491,-1,93,80
1648,14,88,4955.968,1,80,90
1649,14,89,2224.953,1,88,80
1650,14,90,6152.0369999999975,-1,80,70
1651,14,91,1813.711,1,80,93
1652,14,92,3622.56,-1,82,80
1653,14,93,2720.344,-1,50,41
1654,14,94,2245.708,1,96,110
1655,14,95,3785.487,1,80,85
1656,14,96,3213.752,1,60,50
1657,14,97,1167.823,1,41,50
1658,14,98,1525.374,-1,110,96
1659,14,99,3431.1490000000013,1,72,80
1660,14,100,2443.1910000000007,-1,49,50
1661,14,101,2221.091,1,43,50
1662,14,102,2935.902,-1,51,50
1663,14,103,1651.364,-1,112,110
1664,14,104,1982.287,1,40,50
1665,14,105,2313.609,-1,50,51
1666,14,106,1456.456,-1,85,80
1667,14,107,1619.36,-1,50,49
1668,14,108,1573.1629999999998,-1,50,43
1669,14,109,1486.638,1,80,82
1670,14,110,1062.845,1,50,60
1671,14,111,3646.101,-1,53,50
1672,14,112,1232.637,-1,122,110
1673,14,113,2411.8,1,67,80
1674,14,114,4659.356,-1,80,67
1675,14,115,1656.365,1,70,80
1676,14,116,2788.233,-1,110,122
1677,14,117,3271.608,1,110,115
1678,14,118,2808.27,1,110,112
1679,14,119,1766.714,-1,110,103
1680,15,0,2542.2470000000008,1,110,131
1681,15,1,8627.313,1,47,50
1682,15,2,6442.393,-1,50,44
1683,15,3,2761.314000000001,-1,57,50
1684,15,4,8024.03,-1,42,50
1685,15,5,9336.779,-1,108,110
1686,15,6,9932.804,-1,78,80
1687,15,7,5285.785,-1,110,92
1688,15,8,7635.335,-1,50,48
1689,15,9,9593.819,-1,110,101
1690,15,10,4161.977,1,46,50
1691,15,11,14553.385,1,80,83
1692,15,12,5162.8420000000015,-1,50,56
1693,15,13,8179.39,1,50,47
1694,15,14,3542.087,1,110,124
1695,15,15,13076.186000000005,-1,91,80
1696,15,16,8313.158000000001,1,64,80
1697,15,17,8153.101,1,83,80
1698,15,18,3705.626,1,101,110
1699,15,19,8992.614,-1,56,50
1700,15,20,9472.059,-1,50,42
1701,15,21,8236.17,1,110,117
1702,15,22,15938.463,-1,77,80
1703,15,23,4239.218,1,80,91
1704,15,24,5746.953,1,44,50
1705,15,25,9532.568,1,50,57
1706,15,26,4722.124,1,50,46
1707,15,27,15369.211,1,110,108
1708,15,28,7385.411,-1,133,110
1709,15,29,9895.334,-1,131,110
1710,15,30,6098.063,1,126,110
1711,15,31,4835.46,1,110,133
1712,15,32,6008.151999999999,1,110,126
1713,15,33,6182.891,1,48,50
1714,15,34,7349.795999999998,-1,80,77
1715,15,35,10474.995,1,117,110
1716,15,36,5421.495,-1,80,64
1717,15,37,3153.256,1,80,78
1718,15,38,6262.733,-1,124,110
1719,15,39,4944.41,1,92,110
1720,15,40,2979.25,-1,128,110
1721,15,41,3156.916,1,50,58
1722,15,42,3595.586,1,54,50
1723,15,43,3120.278,-1,80,69
1724,15,44,2814.763,1,105,110
1725,15,45,2994.377,-1,55,50
1726,15,46,3986.693,-1,96,80
1727,15,47,3316.936,-1,80,75
1728,15,48,3882.113,1,110,128
1729,15,49,6059.312,-1,59,50
1730,15,50,2162.938,1,110,119
1731,15,51,2865.913,1,52,50
1732,15,52,5206.444,1,58,50
1733,15,53,2973.926,-1,119,110
1734,15,54,2883.09,1,74,80
1735,15,55,4685.692,1,86,80
1736,15,56,3041.92,1,66,80
1737,15,57,1800.668,1,50,59
1738,15,58,1763.589,1,94,110
1739,15,59,2315.861,-1,110,87
1740,15,60,2945.51,-1,75,80
1741,15,61,2771.265,-1,50,45
1742,15,62,4139.096,1,89,110
1743,15,63,2622.048,-1,80,94
1744,15,64,3390.561,-1,110,98
1745,15,65,2481.136,-1,94,80
1746,15,66,6369.557,1,110,94
1747,15,67,2528.916,1,80,66
1748,15,68,3756.866,1,50,54
1749,15,69,4616.184,-1,98,110
1750,15,70,1577.296,1,50,52
1751,15,71,1761.881,1,110,89
1752,15,72,3794.42,1,87,110
1753,15,73,2456.939,1,110,105
1754,15,74,3026.124000000001,1,80,96
1755,15,75,2286.223,1,80,86
1756,15,76,7993.306,1,50,55
1757,15,77,5194.652,1,80,74
1758,15,78,2514.565,1,45,50
1759,15,79,2769.315,1,69,80
1760,15,80,2780.69,-1,50,53
1761,15,81,1750.4589999999994,-1,50,40
1762,15,82,1840.353,1,80,88
1763,15,83,3000.427,-1,115,110
1764,15,84,4711.282,1,103,110
1765,15,85,6119.472,-1,90,80
1766,15,86,6086.816999999999,1,80,72
1767,15,87,2073.7,-1,93,80
1768,15,88,1919.815,1,80,90
1769,15,89,1859.665,-1,88,80
1770,15,90,3829.803,1,80,70
1771,15,91,2262.893,1,80,93
1772,15,92,2561.397,-1,82,80
1773,15,93,2966.97,-1,50,41
1774,15,94,1997.931,1,96,110
1775,15,95,2338.831,1,80,85
1776,15,96,5661.196,-1,60,50
1777,15,97,2959.739,1,41,50
1778,15,98,2422.732,-1,110,96
1779,15,99,3826.993,1,72,80
1780,15,100,1758.854,1,49,50
1781,15,101,3028.583,1,43,50
1782,15,102,2697.3740000000007,1,51,50
1783,15,103,4102.764,1,112,110
1784,15,104,1756.352,1,40,50
1785,15,105,2397.228,1,50,51
1786,15,106,2173.729,-1,85,80
1787,15,107,3967.911,-1,50,49
1788,15,108,3741.914,-1,50,43
1789,15,109,3889.217,1,80,82
1790,15,110,1520.499,1,50,60
1791,15,111,1762.876,1,53,50
1792,15,112,1924.224,-1,122,110
1793,15,113,3361.83,1,67,80
1794,15,114,3701.003,-1,80,67
1795,15,115,1737.534,1,70,80
1796,15,116,1580.1470000000006,1,110,122
1797,15,117,3868.655,1,110,115
1798,15,118,4961.902,1,110,112
1799,15,119,1960.82,1,110,103
1800,16,0,2008.781,1,110,131
1801,16,1,2586.882,-1,47,50
1802,16,2,3858.222,1,50,44
1803,16,3,2024.535,-1,57,50
1804,16,4,2895.813,1,42,50
1805,16,5,2284.07,-1,108,110
1806,16,6,1841.979,1,78,80
1807,16,7,2076.77,-1,110,92
1808,16,8,3061.948,-1,50,48
1809,16,9,2374.73,-1,110,101
1810,16,10,3362.285,1,46,50
1811,16,11,2935.1940000000004,-1,80,83
1812,16,12,1436.7420000000006,1,50,56
1813,16,13,3460.248,-1,50,47
1814,16,14,2347.5460000000007,1,110,124
1815,16,15,4932.093,1,91,80
1816,16,16,3935.056,1,64,80
1817,16,17,2121.737,1,83,80
1818,16,18,1531.599,1,101,110
1819,16,19,2478.458,-1,56,50
1820,16,20,3828.946,-1,50,42
1821,16,21,4461.252,1,110,117
1822,16,22,2795.627,-1,77,80
1823,16,23,3155.075,-1,80,91
1824,16,24,1472.473,1,44,50
1825,16,25,1866.506,1,50,57
1826,16,26,1862.875,-1,50,46
1827,16,27,1877.529,-1,110,108
1828,16,28,1935.355,-1,133,110
1829,16,29,4587.041,1,131,110
1830,16,30,2047.813,-1,126,110
1831,16,31,1788.521,1,110,133
1832,16,32,2422.426,1,110,126
1833,16,33,2130.592,1,48,50
1834,16,34,2285.173,1,80,77
1835,16,35,4221.68,-1,117,110
1836,16,36,1724.138,-1,80,64
1837,16,37,2763.993,-1,80,78
1838,16,38,1961.624,-1,124,110
1839,16,39,3086.572,1,92,110
1840,16,40,2297.314,1,128,110
1841,16,41,1450.68,1,50,58
1842,16,42,1785.609,-1,54,50
1843,16,43,3070.115,-1,80,69
1844,16,44,2001.393,-1,105,110
1845,16,45,3542.867,1,55,50
1846,16,46,1684.057,-1,96,80
1847,16,47,3277.203,-1,80,75
1848,16,48,2804.936,1,110,128
1849,16,49,2607.568,-1,59,50
1850,16,50,4602.334,1,110,119
1851,16,51,2088.893,1,52,50
1852,16,52,2599.006,-1,58,50
1853,16,53,2728.257,-1,119,110
1854,16,54,1424.432,1,74,80
1855,16,55,4003.233,-1,86,80
1856,16,56,2458.65,1,66,80
1857,16,57,1380.082,1,50,59
1858,16,58,2036.945,1,94,110
1859,16,59,2979.857,-1,110,87
1860,16,60,1563.707,1,75,80
1861,16,61,1949.932,-1,50,45
1862,16,62,1564.188,1,89,110
1863,16,63,1570.775,1,80,94
1864,16,64,2046.326,-1,110,98
1865,16,65,1989.609,1,94,80
1866,16,66,4922.105,-1,110,94
1867,16,67,2979.601,-1,80,66
1868,16,68,1501.083,-1,50,54
1869,16,69,4729.0,1,98,110
1870,16,70,1268.247,1,50,52
1871,16,71,1773.473,-1,110,89
1872,16,72,3472.1,1,87,110
1873,16,73,3527.954,1,110,105
1874,16,74,1474.216,1,80,96
1875,16,75,2694.1890000000008,1,80,86
1876,16,76,1369.8,1,50,55
1877,16,77,2337.132,-1,80,74
1878,16,78,1163.444,1,45,50
1879,16,79,2544.723,1,69,80
1880,16,80,3447.013,-1,50,53
1881,16,81,2861.298,-1,50,40
1882,16,82,1581.868,1,80,88
1883,16,83,3253.2790000000005,1,115,110
1884,16,84,1378.583,1,103,110
1885,16,85,1118.566,1,90,80
1886,16,86,4386.187,-1,80,72
1887,16,87,4784.368,-1,93,80
1888,16,88,4116.16,-1,80,90
1889,16,89,2423.192,-1,88,80
1890,16,90,1776.985,-1,80,70
1891,16,91,1505.001,1,80,93
1892,16,92,1452.55,1,82,80
1893,16,93,1761.95,-1,50,41
1894,16,94,1458.171,1,96,110
1895,16,95,2013.089,1,80,85
1896,16,96,1090.55,1,60,50
1897,16,97,1368.803,1,41,50
1898,16,98,3310.863,-1,110,96
1899,16,99,1333.375,1,72,80
1900,16,100,1099.681,1,49,50
1901,16,101,1094.369,1,43,50
1902,16,102,1480.236,1,51,50
1903,16,103,2309.8160000000007,1,112,110
1904,16,104,1215.538,1,40,50
1905,16,105,2433.235,-1,50,51
1906,16,106,2634.328,1,85,80
1907,16,107,3138.709000000001,-1,50,49
1908,16,108,2271.006,-1,50,43
1909,16,109,1691.994,1,80,82
1910,16,110,1163.123,1,50,60
1911,16,111,2011.25,1,53,50
1912,16,112,1789.399,-1,122,110
1913,16,113,1387.178,1,67,80
1914,16,114,1788.973,-1,80,67
1915,16,115,1354.686,1,70,80
1916,16,116,1574.639,-1,110,122
1917,16,117,3036.334000000001,-1,110,115
1918,16,118,2535.757,-1,110,112
1919,16,119,1278.781,1,110,103
1920,17,0,5160.755,1,110,131
1921,17,1,5476.752,1,47,50
1922,17,2,8795.442,-1,50,44
1923,17,3,2722.045,-1,57,50
1924,17,4,2295.407,1,42,50
1925,17,5,8504.661,1,108,110
1926,17,6,8819.823,1,78,80
1927,17,7,5062.996,-1,110,92
1928,17,8,5747.128000000002,1,50,48
1929,17,9,9253.138,1,110,101
1930,17,10,4601.858,1,46,50
1931,17,11,5596.897,-1,80,83
1932,17,12,4091.185,1,50,56
1933,17,13,6796.208000000001,-1,50,47
1934,17,14,2675.7490000000007,1,110,124
1935,17,15,5472.234,-1,91,80
1936,17,16,8278.929,1,64,80
1937,17,17,11238.256,1,83,80
1938,17,18,14285.494,1,101,110
1939,17,19,7703.028,1,56,50
1940,17,20,10331.197,-1,50,42
1941,17,21,18416.96,-1,110,117
1942,17,22,2657.793,-1,77,80
1943,17,23,8402.476,1,80,91
1944,17,24,3144.345,1,44,50
1945,17,25,3045.078,1,50,57
1946,17,26,10122.536,1,50,46
1947,17,27,5818.096,-1,110,108
1948,17,28,5373.225,-1,133,110
1949,17,29,6580.386,-1,131,110
1950,17,30,5049.907,-1,126,110
1951,17,31,10371.513,1,110,133
1952,17,32,4922.645,1,110,126
1953,17,33,4311.127,-1,48,50
1954,17,34,10980.744,-1,80,77
1955,17,35,6566.471,-1,117,110
1956,17,36,3874.463,-1,80,64
1957,17,37,13264.296,1,80,78
1958,17,38,7431.411,-1,124,110
1959,17,39,8552.089,1,92,110
1960,17,40,8105.937,-1,128,110
1961,17,41,6189.041,-1,50,58
1962,17,42,7687.597,-1,54,50
1963,17,43,9285.34,1,80,69
1964,17,44,5532.585,1,105,110
1965,17,45,13944.792,-1,55,50
1966,17,46,2445.729,-1,96,80
1967,17,47,4590.124,-1,80,75
1968,17,48,8380.514000000001,1,110,128
1969,17,49,3432.429,-1,59,50
1970,17,50,3722.621,1,110,119
1971,17,51,2249.913,-1,52,50
1972,17,52,5482.09,-1,58,50
1973,17,53,3675.066,-1,119,110
1974,17,54,6204.276,1,74,80
1975,17,55,7792.313,-1,86,80
1976,17,56,6074.708000000001,1,66,80
1977,17,57,4961.477,-1,50,59
1978,17,58,2630.567,1,94,110
1979,17,59,7520.661,-1,110,87
1980,17,60,8540.538,-1,75,80
1981,17,61,5538.106,-1,50,45
1982,17,62,11191.67,1,89,110
1983,17,63,3857.111,1,80,94
1984,17,64,5781.801,1,110,98
1985,17,65,3470.306,-1,94,80
1986,17,66,6867.0059999999985,-1,110,94
1987,17,67,10484.592,1,80,66
1988,17,68,6690.687,1,50,54
1989,17,69,3292.039,1,98,110
1990,17,70,5662.382,-1,50,52
1991,17,71,2884.823,-1,110,89
1992,17,72,12863.287,1,87,110
1993,17,73,13077.122,-1,110,105
1994,17,74,2517.831,1,80,96
1995,17,75,5439.781999999998,1,80,86
1996,17,76,9844.08,1,50,55
1997,17,77,3222.062,-1,80,74
1998,17,78,10498.829,1,45,50
1999,17,79,8477.369,1,69,80
2000,17,80,5097.561,-1,50,53
2001,17,81,4035.593,-1,50,40
2002,17,82,2430.067,1,80,88
2003,17,83,6841.13,1,115,110
2004,17,84,4750.34,1,103,110
2005,17,85,4076.55,-1,90,80
2006,17,86,5521.174,-1,80,72
2007,17,87,9502.706,-1,93,80
2008,17,88,5340.182,1,80,90
2009,17,89,4030.4040000000014,-1,88,80
2010,17,90,7517.559,-1,80,70
2011,17,91,8643.44,1,80,93
2012,17,92,8397.546999999999,1,82,80
2013,17,93,5101.478,-1,50,41
2014,17,94,6750.531999999997,1,96,110
2015,17,95,10678.701,-1,80,85
2016,17,96,3040.401,-1,60,50
2017,17,97,8784.855,-1,41,50
2018,17,98,7283.052,-1,110,96
2019,17,99,2988.272,1,72,80
2020,17,100,2952.3790000000013,-1,49,50
2021,17,101,4316.585,1,43,50
2022,17,102,12613.209,-1,51,50
2023,17,103,8638.511999999999,-1,112,110
2024,17,104,3047.884,1,40,50
2025,17,105,4555.576,1,50,51
2026,17,106,1776.571,-1,85,80
2027,17,107,8255.091999999999,1,50,49
2028,17,108,4504.07,-1,50,43
2029,17,109,5685.101,-1,80,82
2030,17,110,15205.986,1,50,60
2031,17,111,4380.422000000001,-1,53,50
2032,17,112,3073.4570000000012,-1,122,110
2033,17,113,3444.061,1,67,80
2034,17,114,17791.478,1,80,67
2035,17,115,1860.292,1,70,80
2036,17,116,3502.3190000000004,1,110,122
2037,17,117,14815.109,1,110,115
2038,17,118,3301.886,-1,110,112
2039,17,119,3517.441,1,110,103
2040,18,0,7075.7980000000025,1,110,131
2041,18,1,6712.44,1,47,50
2042,18,2,4320.861,-1,50,44
2043,18,3,6032.645,-1,57,50
2044,18,4,6490.056,1,42,50
2045,18,5,5453.4540000000015,1,108,110
2046,18,6,8890.216999999999,1,78,80
2047,18,7,3306.749000000001,-1,110,92
2048,18,8,5462.7559999999985,-1,50,48
2049,18,9,4068.082,-1,110,101
2050,18,10,5324.076,-1,46,50
2051,18,11,3127.338,1,80,83
2052,18,12,5073.1579999999985,1,50,56
2053,18,13,2805.148,1,50,47
2054,18,14,2704.112,1,110,124
2055,18,15,9469.143,-1,91,80
2056,18,16,3309.7209999999995,1,64,80
2057,18,17,3512.929,1,83,80
2058,18,18,2829.821,1,101,110
2059,18,19,7894.319,-1,56,50
2060,18,20,4102.758,1,50,42
2061,18,21,5442.824000000001,1,110,117
2062,18,22,4131.013,-1,77,80
2063,18,23,4778.66,1,80,91
2064,18,24,3386.115,1,44,50
2065,18,25,2518.068,1,50,57
2066,18,26,5298.538000000001,1,50,46
2067,18,27,3416.423,-1,110,108
2068,18,28,3039.393,-1,133,110
2069,18,29,2373.224,-1,131,110
2070,18,30,5304.009,-1,126,110
2071,18,31,2315.723,1,110,133
2072,18,32,3882.361,1,110,126
2073,18,33,3421.09,-1,48,50
2074,18,34,6181.335,-1,80,77
2075,18,35,4822.684,-1,117,110
2076,18,36,5032.7170000000015,-1,80,64
2077,18,37,4728.562,-1,80,78
2078,18,38,5177.705,-1,124,110
2079,18,39,3390.173,1,92,110
2080,18,40,6173.666,-1,128,110
2081,18,41,3306.925,1,50,58
2082,18,42,6664.722,-1,54,50
2083,18,43,6250.446,-1,80,69
2084,18,44,3739.708,1,105,110
2085,18,45,7016.376,-1,55,50
2086,18,46,2834.9240000000004,-1,96,80
2087,18,47,7416.059,1,80,75
2088,18,48,2708.862,1,110,128
2089,18,49,3080.123,-1,59,50
2090,18,50,5181.807,1,110,119
2091,18,51,7452.204000000002,1,52,50
2092,18,52,2372.702,-1,58,50
2093,18,53,10680.274,1,119,110
2094,18,54,6787.801,1,74,80
2095,18,55,6399.58,-1,86,80
2096,18,56,1399.156,1,66,80
2097,18,57,2122.0660000000007,1,50,59
2098,18,58,3394.367,1,94,110
2099,18,59,4659.232,-1,110,87
2100,18,60,6347.686,-1,75,80
2101,18,61,4806.331,1,50,45
2102,18,62,3109.061,1,89,110
2103,18,63,4449.014,1,80,94
2104,18,64,3725.623,-1,110,98
2105,18,65,4789.33,-1,94,80
2106,18,66,4982.5329999999985,-1,110,94
2107,18,67,3483.972,-1,80,66
2108,18,68,6542.814,1,50,54
2109,18,69,2421.26,1,98,110
2110,18,70,5013.56,1,50,52
2111,18,71,2292.479,-1,110,89
2112,18,72,2516.337,1,87,110
2113,18,73,5471.705,1,110,105
2114,18,74,3739.22,1,80,96
2115,18,75,5058.54,1,80,86
2116,18,76,2488.417,1,50,55
2117,18,77,3917.856,1,80,74
2118,18,78,2324.17,1,45,50
2119,18,79,3251.9040000000005,1,69,80
2120,18,80,4483.769,1,50,53
2121,18,81,4823.128,-1,50,40
2122,18,82,4383.019,1,80,88
2123,18,83,3856.271,-1,115,110
2124,18,84,6145.3830000000025,1,103,110
2125,18,85,6684.002,-1,90,80
2126,18,86,4152.188,-1,80,72
2127,18,87,5040.3290000000015,-1,93,80
2128,18,88,3192.435,1,80,90
2129,18,89,5972.8409999999985,1,88,80
2130,18,90,4411.7,-1,80,70
2131,18,91,2609.029,1,80,93
2132,18,92,6391.76,1,82,80
2133,18,93,1840.682,-1,50,41
2134,18,94,2030.775,1,96,110
2135,18,95,2881.835,-1,80,85
2136,18,96,3080.954,-1,60,50
2137,18,97,3003.969,1,41,50
2138,18,98,5303.755,-1,110,96
2139,18,99,5176.889,1,72,80
2140,18,100,3426.235,1,49,50
2141,18,101,3665.522,1,43,50
2142,18,102,4475.915,-1,51,50
2143,18,103,6056.958000000001,-1,112,110
2144,18,104,2049.054,1,40,50
2145,18,105,5343.713000000002,1,50,51
2146,18,106,8228.405,1,85,80
2147,18,107,5846.507,-1,50,49
2148,18,108,4909.27,-1,50,43
2149,18,109,5775.86,-1,80,82
2150,18,110,4950.632000000001,1,50,60
2151,18,111,5227.608,-1,53,50
2152,18,112,4857.927,-1,122,110
2153,18,113,2799.935,1,67,80
2154,18,114,4223.308,-1,80,67
2155,18,115,3835.246,1,70,80
2156,18,116,6018.67,1,110,122
2157,18,117,7156.7980000000025,1,110,115
2158,18,118,9089.21,-1,110,112
2159,18,119,2933.12,-1,110,103
2160,19,0,6475.39,1,110,131
2161,19,1,5457.523,1,47,50
2162,19,2,3612.663,1,50,44
2163,19,3,2453.851,-1,57,50
2164,19,4,2498.278,1,42,50
2165,19,5,3784.341,-1,108,110
2166,19,6,3312.037000000001,1,78,80
2167,19,7,2071.87,-1,110,92
2168,19,8,2598.527,1,50,48
2169,19,9,8246.877,1,110,101
2170,19,10,4932.687,1,46,50
2171,19,11,5044.238,-1,80,83
2172,19,12,3705.313,1,50,56
2173,19,13,5147.894,1,50,47
2174,19,14,2795.16,1,110,124
2175,19,15,3196.865,-1,91,80
2176,19,16,1691.781,1,64,80
2177,19,17,3112.119,1,83,80
2178,19,18,4105.096,1,101,110
2179,19,19,2207.039,-1,56,50
2180,19,20,2066.628,-1,50,42
2181,19,21,3205.343,1,110,117
2182,19,22,1857.539,1,77,80
2183,19,23,4413.562,1,80,91
2184,19,24,1605.789,1,44,50
2185,19,25,1532.701,1,50,57
2186,19,26,2053.726,-1,50,46
2187,19,27,7380.932,-1,110,108
2188,19,28,2119.062,-1,133,110
2189,19,29,3491.948,-1,131,110
2190,19,30,2192.829,-1,126,110
2191,19,31,2675.105,1,110,133
2192,19,32,4438.233,-1,110,126
2193,19,33,2502.728,-1,48,50
2194,19,34,2094.72,-1,80,77
2195,19,35,1977.153,-1,117,110
2196,19,36,3124.778,-1,80,64
2197,19,37,3230.196,1,80,78
2198,19,38,5512.344,-1,124,110
2199,19,39,5433.436,1,92,110
2200,19,40,4996.449000000001,-1,128,110
2201,19,41,3088.427,1,50,58
2202,19,42,1749.507,-1,54,50
2203,19,43,2484.297,-1,80,69
2204,19,44,2170.206,1,105,110
2205,19,45,2467.256,-1,55,50
2206,19,46,2455.878,-1,96,80
2207,19,47,2301.282,1,80,75
2208,19,48,2820.303,1,110,128
2209,19,49,2337.382,1,59,50
2210,19,50,2160.222,1,110,119
2211,19,51,2275.866,1,52,50
2212,19,52,2485.773,-1,58,50
2213,19,53,2318.966,-1,119,110
2214,19,54,1684.058,1,74,80
2215,19,55,3506.286,-1,86,80
2216,19,56,4650.377,1,66,80
2217,19,57,11545.02,1,50,59
2218,19,58,2498.708,1,94,110
2219,19,59,4453.313,-1,110,87
2220,19,60,5902.98,-1,75,80
2221,19,61,1932.701,-1,50,45
2222,19,62,3714.698,1,89,110
2223,19,63,2244.891,1,80,94
2224,19,64,2143.856,-1,110,98
2225,19,65,1826.174,-1,94,80
2226,19,66,2775.116,1,110,94
2227,19,67,2241.94,-1,80,66
2228,19,68,1525.192,1,50,54
2229,19,69,1661.692,1,98,110
2230,19,70,1982.42,1,50,52
2231,19,71,2120.983,-1,110,89
2232,19,72,1491.5179999999998,1,87,110
2233,19,73,3125.084000000001,1,110,105
2234,19,74,2151.289,1,80,96
2235,19,75,2179.713,1,80,86
2236,19,76,1432.141,1,50,55
2237,19,77,1377.872,1,80,74
2238,19,78,2309.258,1,45,50
2239,19,79,1547.858,1,69,80
2240,19,80,2820.587,1,50,53
2241,19,81,1704.659,-1,50,40
2242,19,82,5033.169,-1,80,88
2243,19,83,2697.706,-1,115,110
2244,19,84,1747.092,1,103,110
2245,19,85,2692.379000000001,-1,90,80
2246,19,86,4167.55,1,80,72
2247,19,87,1764.523,-1,93,80
2248,19,88,1728.311,1,80,90
2249,19,89,2294.46,-1,88,80
2250,19,90,2101.04,-1,80,70
2251,19,91,1214.529,1,80,93
2252,19,92,2307.713,-1,82,80
2253,19,93,1943.765,-1,50,41
2254,19,94,2984.033,1,96,110
2255,19,95,1332.618,1,80,85
2256,19,96,1997.231,-1,60,50
2257,19,97,1159.195,1,41,50
2258,19,98,3082.875,-1,110,96
2259,19,99,1549.754,1,72,80
2260,19,100,1515.689,1,49,50
2261,19,101,1488.156,1,43,50
2262,19,102,1897.56,-1,51,50
2263,19,103,7088.219,1,112,110
2264,19,104,1622.081,1,40,50
2265,19,105,1302.495,1,50,51
2266,19,106,2427.401,-1,85,80
2267,19,107,1189.172,1,50,49
2268,19,108,2249.489,-1,50,43
2269,19,109,1565.388,1,80,82
2270,19,110,1388.035,1,50,60
2271,19,111,1375.454,1,53,50
2272,19,112,3890.676,-1,122,110
2273,19,113,1456.266,1,67,80
2274,19,114,1537.374,-1,80,67
2275,19,115,2288.943,-1,70,80
2276,19,116,3323.84,1,110,122
2277,19,117,1529.707,1,110,115
2278,19,118,2465.503,-1,110,112
2279,19,119,1531.841,1,110,103
2280,20,0,3096.527,1,110,131
2281,20,1,4804.017,1,47,50
2282,20,2,4758.3420000000015,-1,50,44
2283,20,3,11233.854,-1,57,50
2284,20,4,2826.187,1,42,50
2285,20,5,7828.68,1,108,110
2286,20,6,2204.878,1,78,80
2287,20,7,11649.615,-1,110,92
2288,20,8,4665.718,-1,50,48
2289,20,9,5082.372,-1,110,101
2290,20,10,8662.197,-1,46,50
2291,20,11,4227.617,1,80,83
2292,20,12,2754.283,1,50,56
2293,20,13,11298.604,1,50,47
2294,20,14,10917.788,1,110,124
2295,20,15,5971.618,-1,91,80
2296,20,16,1915.946,1,64,80
2297,20,17,6732.477,-1,83,80
2298,20,18,7365.374,-1,101,110
2299,20,19,8669.064,-1,56,50
2300,20,20,1765.141,1,50,42
2301,20,21,6596.93,1,110,117
2302,20,22,2827.474,1,77,80
2303,20,23,4541.507000000001,1,80,91
2304,20,24,1557.1429999999998,1,44,50
2305,20,25,10289.994,1,50,57
2306,20,26,7554.635999999998,-1,50,46
2307,20,27,8190.703,-1,110,108
2308,20,28,4776.085999999998,-1,133,110
2309,20,29,8277.179,-1,131,110
2310,20,30,10069.583,-1,126,110
2311,20,31,9180.159,1,110,133
2312,20,32,11577.07,1,110,126
2313,20,33,9246.755,1,48,50
2314,20,34,6187.4119999999975,-1,80,77
2315,20,35,9929.634,-1,117,110
2316,20,36,15696.76,-1,80,64
2317,20,37,17802.511000000002,-1,80,78
2318,20,38,8895.783000000001,-1,124,110
2319,20,39,5490.979,1,92,110
2320,20,40,3294.411,-1,128,110
2321,20,41,2209.8520000000008,1,50,58
2322,20,42,3181.828,-1,54,50
2323,20,43,5088.622,-1,80,69
2324,20,44,1506.849,1,105,110
2325,20,45,1570.053,1,55,50
2326,20,46,1812.311,-1,96,80
2327,20,47,4295.981,-1,80,75
2328,20,48,2363.489,1,110,128
2329,20,49,2703.242,-1,59,50
2330,20,50,2496.354,1,110,119
2331,20,51,1525.454,1,52,50
2332,20,52,1282.81,1,58,50
2333,20,53,7640.016,1,119,110
2334,20,54,1619.68,1,74,80
2335,20,55,3026.844,1,86,80
2336,20,56,2465.649,1,66,80
2337,20,57,1231.446,1,50,59
2338,20,58,1580.251,1,94,110
2339,20,59,3363.672,-1,110,87
2340,20,60,2525.554,1,75,80
2341,20,61,4689.724,-1,50,45
2342,20,62,1496.447,1,89,110
2343,20,63,3672.478,1,80,94
2344,20,64,4749.541,-1,110,98
2345,20,65,4006.099,-1,94,80
2346,20,66,7331.998,-1,110,94
2347,20,67,2698.953,-1,80,66
2348,20,68,2591.545,1,50,54
2349,20,69,2714.388,1,98,110
2350,20,70,1393.027,1,50,52
2351,20,71,2143.869,-1,110,89
2352,20,72,1678.118,1,87,110
2353,20,73,1719.466,1,110,105
2354,20,74,2563.033,1,80,96
2355,20,75,3619.667,1,80,86
2356,20,76,1547.646,1,50,55
2357,20,77,3393.361,-1,80,74
2358,20,78,3168.93,1,45,50
2359,20,79,3071.428,-1,69,80
2360,20,80,2580.315,-1,50,53
2361,20,81,2722.576,-1,50,40
2362,20,82,2938.429,1,80,88
2363,20,83,3295.7070000000012,1,115,110
2364,20,84,3683.539,1,103,110
2365,20,85,8249.112,-1,90,80
2366,20,86,2994.583,-1,80,72
2367,20,87,6765.163000000001,-1,93,80
2368,20,88,1664.428,1,80,90
2369,20,89,7255.334,1,88,80
2370,20,90,2815.348,1,80,70
2371,20,91,1796.995,1,80,93
2372,20,92,6647.187,-1,82,80
2373,20,93,3679.261,-1,50,41
2374,20,94,3383.786,1,96,110
2375,20,95,2207.859,1,80,85
2376,20,96,2432.117,-1,60,50
2377,20,97,1801.239,1,41,50
2378,20,98,3039.056,-1,110,96
2379,20,99,1626.9260000000006,1,72,80
2380,20,100,1264.083,1,49,50
2381,20,101,2635.446,1,43,50
2382,20,102,2029.802,1,51,50
2383,20,103,9669.532,-1,112,110
2384,20,104,3250.198,1,40,50
2385,20,105,3584.592,1,50,51
2386,20,106,9227.558,-1,85,80
2387,20,107,4733.854,-1,50,49
2388,20,108,4125.917,-1,50,43
2389,20,109,3572.783,1,80,82
2390,20,110,3036.824,1,50,60
2391,20,111,4321.795,-1,53,50
2392,20,112,6443.981,-1,122,110
2393,20,113,1617.9779999999994,1,67,80
2394,20,114,1749.96,1,80,67
2395,20,115,1634.681,1,70,80
2396,20,116,1437.083,1,110,122
2397,20,117,3759.423,-1,110,115
2398,20,118,3647.604,1,110,112
2399,20,119,1670.559,1,110,103
2400,21,0,5262.201999999998,1,110,131
2401,21,1,3953.324,1,47,50
2402,21,2,4835.736,1,50,44
2403,21,3,4328.684,1,57,50
2404,21,4,1911.698,1,42,50
2405,21,5,4664.565,-1,108,110
2406,21,6,2470.485,1,78,80
2407,21,7,2263.966,-1,110,92
2408,21,8,3684.645,-1,50,48
2409,21,9,4214.2829999999985,-1,110,101
2410,21,10,4624.009,1,46,50
2411,21,11,3334.248,1,80,83
2412,21,12,1743.815,1,50,56
2413,21,13,4974.428,1,50,47
2414,21,14,2620.409,1,110,124
2415,21,15,3978.578,-1,91,80
2416,21,16,2625.949,1,64,80
2417,21,17,3474.8,1,83,80
2418,21,18,5071.145,-1,101,110
2419,21,19,1460.254,1,56,50
2420,21,20,3064.178,-1,50,42
2421,21,21,2287.493,1,110,117
2422,21,22,7187.3719999999985,1,77,80
2423,21,23,1755.19,1,80,91
2424,21,24,1357.483,1,44,50
2425,21,25,1727.756,1,50,57
2426,21,26,7173.995,-1,50,46
2427,21,27,4887.55,1,110,108
2428,21,28,2929.147,-1,133,110
2429,21,29,2791.7540000000013,-1,131,110
2430,21,30,3715.584,-1,126,110
2431,21,31,2184.235,1,110,133
2432,21,32,1333.0739999999996,1,110,126
2433,21,33,3809.032,1,48,50
2434,21,34,3733.481,1,80,77
2435,21,35,6625.593000000003,1,117,110
2436,21,36,3065.9240000000004,-1,80,64
2437,21,37,2294.965,1,80,78
2438,21,38,5545.179,-1,124,110
2439,21,39,3858.118,1,92,110
2440,21,40,3927.783,-1,128,110
2441,21,41,2346.591,1,50,58
2442,21,42,2281.117,1,54,50
2443,21,43,2012.436,-1,80,69
2444,21,44,4045.193,1,105,110
2445,21,45,2741.112,-1,55,50
2446,21,46,1764.354,-1,96,80
2447,21,47,5100.177,-1,80,75
2448,21,48,2564.103,1,110,128
2449,21,49,3870.127,-1,59,50
2450,21,50,3701.464,1,110,119
2451,21,51,8908.739,-1,52,50
2452,21,52,5423.255,-1,58,50
2453,21,53,3533.67,-1,119,110
2454,21,54,2659.023,1,74,80
2455,21,55,2188.129,-1,86,80
2456,21,56,2611.263,1,66,80
2457,21,57,2174.234,1,50,59
2458,21,58,2799.173,1,94,110
2459,21,59,1889.209,-1,110,87
2460,21,60,2365.461,1,75,80
2461,21,61,4368.702,-1,50,45
2462,21,62,2463.41,1,89,110
2463,21,63,2663.583,1,80,94
2464,21,64,2172.213,1,110,98
2465,21,65,1703.131,-1,94,80
2466,21,66,4571.52,1,110,94
2467,21,67,3521.212,-1,80,66
2468,21,68,3895.733,-1,50,54
2469,21,69,2916.412000000001,1,98,110
2470,21,70,3362.676,1,50,52
2471,21,71,1545.4879999999994,-1,110,89
2472,21,72,2022.807,1,87,110
2473,21,73,2186.946,1,110,105
2474,21,74,1891.139,1,80,96
2475,21,75,8029.44,1,80,86
2476,21,76,2919.296,1,50,55
2477,21,77,3110.724,1,80,74
2478,21,78,2221.779,1,45,50
2479,21,79,3658.028,1,69,80
2480,21,80,2400.215,1,50,53
2481,21,81,4795.18,-1,50,40
2482,21,82,2464.427,1,80,88
2483,21,83,2582.984,-1,115,110
2484,21,84,3333.14,-1,103,110
2485,21,85,6205.311,-1,90,80
2486,21,86,7904.323,1,80,72
2487,21,87,3177.11,1,93,80
2488,21,88,2096.738,1,80,90
2489,21,89,1419.017,1,88,80
2490,21,90,5425.377,-1,80,70
2491,21,91,2963.507,1,80,93
2492,21,92,3435.493,1,82,80
2493,21,93,4322.837,-1,50,41
2494,21,94,3453.615,1,96,110
2495,21,95,3341.141,1,80,85
2496,21,96,3487.366,-1,60,50
2497,21,97,2448.685,1,41,50
2498,21,98,1741.28,-1,110,96
2499,21,99,2125.919,1,72,80
2500,21,100,2296.95,-1,49,50
2501,21,101,3825.649,-1,43,50
2502,21,102,6548.938,-1,51,50
2503,21,103,3613.055,1,112,110
2504,21,104,1967.491,1,40,50
2505,21,105,8515.563,1,50,51
2506,21,106,4615.47,1,85,80
2507,21,107,1932.855,-1,50,49
2508,21,108,2072.021,1,50,43
2509,21,109,4164.697,1,80,82
2510,21,110,2067.636,1,50,60
2511,21,111,8965.785,1,53,50
2512,21,112,1657.823,-1,122,110
2513,21,113,4773.458,1,67,80
2514,21,114,1700.826,-1,80,67
2515,21,115,1956.149,1,70,80
2516,21,116,2339.862,1,110,122
2517,21,117,2296.298,1,110,115
2518,21,118,2008.652,1,110,112
2519,21,119,3618.108,-1,110,103
2520,22,0,4537.993,1,110,131
2521,22,1,2586.963,1,47,50
2522,22,2,3177.974,1,50,44
2523,22,3,1960.35,-1,57,50
2524,22,4,1274.41,1,42,50
2525,22,5,1644.567,-1,108,110
2526,22,6,3871.098,1,78,80
2527,22,7,3338.173,-1,110,92
2528,22,8,2504.418,-1,50,48
2529,22,9,2644.842,-1,110,101
2530,22,10,2817.4840000000013,1,46,50
2531,22,11,3032.704,1,80,83
2532,22,12,2405.77,1,50,56
2533,22,13,3382.378,1,50,47
2534,22,14,2201.455,1,110,124
2535,22,15,1647.6070000000002,-1,91,80
2536,22,16,4088.601,1,64,80
2537,22,17,13138.447,1,83,80
2538,22,18,1937.222,-1,101,110
2539,22,19,1213.214,1,56,50
2540,22,20,1389.5079999999994,1,50,42
2541,22,21,3259.071,1,110,117
2542,22,22,1555.1729999999998,1,77,80
2543,22,23,5069.976,1,80,91
2544,22,24,1336.313,1,44,50
2545,22,25,1182.444,1,50,57
2546,22,26,1338.95,1,50,46
2547,22,27,1862.513,-1,110,108
2548,22,28,2617.658,-1,133,110
2549,22,29,4142.725,1,131,110
2550,22,30,1432.219,1,126,110
2551,22,31,3548.336,1,110,133
2552,22,32,2776.543,1,110,126
2553,22,33,4499.653,1,48,50
2554,22,34,2747.788,1,80,77
2555,22,35,2167.218,-1,117,110
2556,22,36,4105.584,-1,80,64
2557,22,37,2361.564,1,80,78
2558,22,38,1730.479,-1,124,110
2559,22,39,2481.226,1,92,110
2560,22,40,2832.425,1,128,110
2561,22,41,1245.847,1,50,58
2562,22,42,5351.723000000001,1,54,50
2563,22,43,2878.054,-1,80,69
2564,22,44,5010.351,-1,105,110
2565,22,45,1722.535,-1,55,50
2566,22,46,3481.955,-1,96,80
2567,22,47,3005.074,-1,80,75
2568,22,48,2443.694,1,110,128
2569,22,49,1336.958,1,59,50
2570,22,50,1867.874,1,110,119
2571,22,51,2857.047,-1,52,50
2572,22,52,1027.907,1,58,50
2573,22,53,2047.906,-1,119,110
2574,22,54,2419.123,1,74,80
2575,22,55,1235.95,1,86,80
2576,22,56,1568.838,1,66,80
2577,22,57,3832.769,1,50,59
2578,22,58,4459.989000000001,1,94,110
2579,22,59,1727.036,-1,110,87
2580,22,60,1045.908,1,75,80
2581,22,61,2923.584000000001,-1,50,45
2582,22,62,1735.928,-1,89,110
2583,22,63,1715.6229999999994,1,80,94
2584,22,64,1720.2479999999994,-1,110,98
2585,22,65,3814.193,-1,94,80
2586,22,66,3350.17,-1,110,94
2587,22,67,1875.777,1,80,66
2588,22,68,1258.058,1,50,54
2589,22,69,3335.248,1,98,110
2590,22,70,4384.725,-1,50,52
2591,22,71,1283.15,-1,110,89
2592,22,72,1904.111,1,87,110
2593,22,73,1966.821,-1,110,105
2594,22,74,14660.622,-1,80,96
2595,22,75,2734.725,1,80,86
2596,22,76,2675.513,1,50,55
2597,22,77,3280.808,-1,80,74
2598,22,78,1183.132,1,45,50
2599,22,79,1136.765,1,69,80
2600,22,80,2690.545,1,50,53
2601,22,81,2904.159,-1,50,40
2602,22,82,2020.204,1,80,88
2603,22,83,5823.042,1,115,110
2604,22,84,2364.803,1,103,110
2605,22,85,2087.627,1,90,80
2606,22,86,1253.863,1,80,72
2607,22,87,2354.439,1,93,80
2608,22,88,1642.4070000000006,-1,80,90
2609,22,89,3602.054,1,88,80
2610,22,90,1140.405,1,80,70
2611,22,91,1132.559,1,80,93
2612,22,92,1035.352,1,82,80
2613,22,93,3856.735,1,50,41
2614,22,94,1972.125,1,96,110
2615,22,95,1743.2179999999994,1,80,85
2616,22,96,1954.868,1,60,50
2617,22,97,2041.706,1,41,50
2618,22,98,1993.617,1,110,96
2619,22,99,3404.2340000000013,1,72,80
2620,22,100,2069.967,1,49,50
2621,22,101,2524.0460000000007,-1,43,50
2622,22,102,1021.653,1,51,50
2623,22,103,3057.357,1,112,110
2624,22,104,1207.583,1,40,50
2625,22,105,1852.45,1,50,51
2626,22,106,1991.661,1,85,80
2627,22,107,1258.405,1,50,49
2628,22,108,1145.536,1,50,43
2629,22,109,2516.649,1,80,82
2630,22,110,1842.058,1,50,60
2631,22,111,1980.187,1,53,50
2632,22,112,1017.719,1,122,110
2633,22,113,2228.271,1,67,80
2634,22,114,1967.784,1,80,67
2635,22,115,2396.256,1,70,80
2636,22,116,1232.64,1,110,122
2637,22,117,1559.9720000000002,1,110,115
2638,22,118,1769.561,-1,110,112
2639,22,119,2482.277,1,110,103
2640,23,0,2344.062,1,110,131
2641,23,1,4627.984,1,47,50
2642,23,2,2976.171,-1,50,44
2643,23,3,5534.2890000000025,-1,57,50
2644,23,4,6015.648,1,42,50
2645,23,5,5201.6590000000015,-1,108,110
2646,23,6,9036.964,1,78,80
2647,23,7,2203.778,-1,110,92
2648,23,8,3222.26,-1,50,48
2649,23,9,3193.828,-1,110,101
2650,23,10,7236.065,1,46,50
2651,23,11,4608.862,1,80,83
2652,23,12,5553.779,1,50,56
2653,23,13,1702.086,-1,50,47
2654,23,14,6570.668000000002,-1,110,124
2655,23,15,6377.001,-1,91,80
2656,23,16,2698.1740000000004,1,64,80
2657,23,17,5340.3690000000015,1,83,80
2658,23,18,2953.7790000000005,1,101,110
2659,23,19,3482.959000000001,-1,56,50
2660,23,20,1713.165,-1,50,42
2661,23,21,4477.442,1,110,117
2662,23,22,4010.07,1,77,80
2663,23,23,4995.276,1,80,91
2664,23,24,6005.393,1,44,50
2665,23,25,7086.972,1,50,57
2666,23,26,10712.993,-1,50,46
2667,23,27,3501.092,-1,110,108
2668,23,28,3416.171,-1,133,110
2669,23,29,6492.763000000001,1,131,110
2670,23,30,2468.641,-1,126,110
2671,23,31,3639.825,1,110,133
2672,23,32,2461.623,1,110,126
2673,23,33,5899.174,1,48,50
2674,23,34,8113.496,1,80,77
2675,23,35,6384.6619999999975,-1,117,110
2676,23,36,1466.661,-1,80,64
2677,23,37,3374.687,1,80,78
2678,23,38,4830.295,-1,124,110
2679,23,39,2760.83,1,92,110
2680,23,40,2978.324,-1,128,110
2681,23,41,2394.95,1,50,58
2682,23,42,4043.489,-1,54,50
2683,23,43,3110.236,-1,80,69
2684,23,44,2338.1620000000007,1,105,110
2685,23,45,1902.047,-1,55,50
2686,23,46,3217.385,-1,96,80
2687,23,47,4795.25,-1,80,75
2688,23,48,2186.1,1,110,128
2689,23,49,1925.543,-1,59,50
2690,23,50,4451.032,-1,110,119
2691,23,51,3095.197,-1,52,50
2692,23,52,7624.385999999998,1,58,50
2693,23,53,2704.182,-1,119,110
2694,23,54,4213.814,1,74,80
2695,23,55,3277.911,-1,86,80
2696,23,56,1742.037,1,66,80
2697,23,57,1585.672,1,50,59
2698,23,58,2365.385,1,94,110
2699,23,59,2278.348,-1,110,87
2700,23,60,3189.7070000000012,1,75,80
2701,23,61,5392.648,-1,50,45
2702,23,62,2210.893,1,89,110
2703,23,63,3352.195,1,80,94
2704,23,64,4265.469,1,110,98
2705,23,65,8368.841,-1,94,80
2706,23,66,3526.597,-1,110,94
2707,23,67,3109.193,-1,80,66
2708,23,68,4880.3409999999985,-1,50,54
2709,23,69,1698.8010000000006,1,98,110
2710,23,70,3014.328,1,50,52
2711,23,71,5611.193,-1,110,89
2712,23,72,2165.3,1,87,110
2713,23,73,4414.14,-1,110,105
2714,23,74,4289.097,1,80,96
2715,23,75,1643.303,1,80,86
2716,23,76,2858.929,1,50,55
2717,23,77,3979.11,-1,80,74
2718,23,78,4881.373,1,45,50
2719,23,79,2245.528,1,69,80
2720,23,80,1875.905,1,50,53
2721,23,81,2376.242,-1,50,40
2722,23,82,1984.592,1,80,88
2723,23,83,4864.56,-1,115,110
2724,23,84,3147.067,1,103,110
2725,23,85,6297.699000000001,1,90,80
2726,23,86,2783.599,-1,80,72
2727,23,87,3529.033,-1,93,80
2728,23,88,5074.029,1,80,90
2729,23,89,3747.942,-1,88,80
2730,23,90,3567.828,1,80,70
2731,23,91,2085.536,1,80,93
2732,23,92,3857.72,-1,82,80
2733,23,93,3532.94,-1,50,41
2734,23,94,2868.798,1,96,110
2735,23,95,2428.069,1,80,85
2736,23,96,4224.684,-1,60,50
2737,23,97,2737.177,1,41,50
2738,23,98,3647.591,-1,110,96
2739,23,99,1696.7220000000002,1,72,80
2740,23,100,8186.4630000000025,1,49,50
2741,23,101,8628.347,1,43,50
2742,23,102,4808.653,-1,51,50
2743,23,103,7458.3380000000025,-1,112,110
2744,23,104,2172.229,1,40,50
2745,23,105,4388.031,-1,50,51
2746,23,106,5195.435,1,85,80
2747,23,107,5465.185,-1,50,49
2748,23,108,7167.638000000001,1,50,43
2749,23,109,7094.661,1,80,82
2750,23,110,2298.996,1,50,60
2751,23,111,5971.541,1,53,50
2752,23,112,6903.541,-1,122,110
2753,23,113,1808.105,1,67,80
2754,23,114,6005.364000000001,-1,80,67
2755,23,115,2137.484,1,70,80
2756,23,116,2025.05,1,110,122
2757,23,117,4421.108,1,110,115
2758,23,118,6405.426,-1,110,112
2759,23,119,3406.581,-1,110,103
2760,24,0,13446.647,1,110,131
2761,24,1,14524.851,1,47,50
2762,24,2,8482.831,-1,50,44
2763,24,3,7790.284000000002,-1,57,50
2764,24,4,8137.083,1,42,50
2765,24,5,15677.821000000002,1,108,110
2766,24,6,10911.268999999998,1,78,80
2767,24,7,6553.163000000001,-1,110,92
2768,24,8,2662.425,1,50,48
2769,24,9,8306.192,-1,110,101
2770,24,10,5601.945,1,46,50
2771,24,11,6247.111999999999,1,80,83
2772,24,12,2528.041,1,50,56
2773,24,13,14967.924,1,50,47
2774,24,14,3203.733,1,110,124
2775,24,15,8905.4,-1,91,80
2776,24,16,15783.087,1,64,80
2777,24,17,8126.123,-1,83,80
2778,24,18,11386.066,-1,101,110
2779,24,19,4852.127,-1,56,50
2780,24,20,11320.057,1,50,42
2781,24,21,4958.222,1,110,117
2782,24,22,5720.845,1,77,80
2783,24,23,2867.3190000000004,1,80,91
2784,24,24,12566.805,1,44,50
2785,24,25,2622.717,1,50,57
2786,24,26,3022.98,1,50,46
2787,24,27,5129.2170000000015,-1,110,108
2788,24,28,6388.74,-1,133,110
2789,24,29,3102.868,-1,131,110
2790,24,30,3448.079,-1,126,110
2791,24,31,2074.678,1,110,133
2792,24,32,2311.138,1,110,126
2793,24,33,20040.576,-1,48,50
2794,24,34,14313.706,1,80,77
2795,24,35,2068.984,1,117,110
2796,24,36,6688.034000000002,-1,80,64
2797,24,37,3621.703,1,80,78
2798,24,38,4192.496,-1,124,110
2799,24,39,1830.987,1,92,110
2800,24,40,4405.112,1,128,110
2801,24,41,5138.55,1,50,58
2802,24,42,4855.218,-1,54,50
2803,24,43,5766.9519999999975,-1,80,69
2804,24,44,2587.378,1,105,110
2805,24,45,1895.944,1,55,50
2806,24,46,2777.171,-1,96,80
2807,24,47,5402.038000000001,-1,80,75
2808,24,48,3141.014,1,110,128
2809,24,49,4355.044,-1,59,50
2810,24,50,2043.082,1,110,119
2811,24,51,4459.518,-1,52,50
2812,24,52,5189.438,-1,58,50
2813,24,53,4414.155,-1,119,110
2814,24,54,3179.9,1,74,80
2815,24,55,7117.9969999999985,1,86,80
2816,24,56,8100.37,1,66,80
2817,24,57,10991.32,1,50,59
2818,24,58,3808.033,1,94,110
2819,24,59,3128.206,-1,110,87
2820,24,60,7991.005,-1,75,80
2821,24,61,4034.818,-1,50,45
2822,24,62,2980.009,1,89,110
2823,24,63,4047.436,1,80,94
2824,24,64,5109.372,-1,110,98
2825,24,65,8951.546999999999,-1,94,80
2826,24,66,10596.642,-1,110,94
2827,24,67,8235.019,-1,80,66
2828,24,68,3631.516,1,50,54
2829,24,69,5048.949000000001,1,98,110
2830,24,70,4187.9209999999985,1,50,52
2831,24,71,2787.595,-1,110,89
2832,24,72,2740.276,1,87,110
2833,24,73,2924.485,-1,110,105
2834,24,74,1756.037,1,80,96
2835,24,75,2077.14,1,80,86
2836,24,76,2617.624,1,50,55
2837,24,77,6354.7559999999985,1,80,74
2838,24,78,4187.163,1,45,50
2839,24,79,2305.712,1,69,80
2840,24,80,4691.508,1,50,53
2841,24,81,4739.589,-1,50,40
2842,24,82,1773.614,1,80,88
2843,24,83,4930.746,1,115,110
2844,24,84,3031.8590000000013,1,103,110
2845,24,85,2542.756,-1,90,80
2846,24,86,2181.946,1,80,72
2847,24,87,5720.0880000000025,-1,93,80
2848,24,88,2166.239,1,80,90
2849,24,89,2670.265,-1,88,80
2850,24,90,3263.573,-1,80,70
2851,24,91,7003.096,-1,80,93
2852,24,92,4127.078,1,82,80
2853,24,93,6665.635,-1,50,41
2854,24,94,2597.019,1,96,110
2855,24,95,3825.918,1,80,85
2856,24,96,3159.739,1,60,50
2857,24,97,6027.076,1,41,50
2858,24,98,7100.333000000001,1,110,96
2859,24,99,3118.869,1,72,80
2860,24,100,3551.592,1,49,50
2861,24,101,1701.295,1,43,50
2862,24,102,11519.87,1,51,50
2863,24,103,2257.657,-1,112,110
2864,24,104,1902.204,1,40,50
2865,24,105,3278.506,-1,50,51
2866,24,106,5836.7559999999985,1,85,80
2867,24,107,6428.128000000002,-1,50,49
2868,24,108,3240.047,1,50,43
2869,24,109,2056.268,1,80,82
2870,24,110,2066.19,1,50,60
2871,24,111,6681.316,-1,53,50
2872,24,112,9861.942,-1,122,110
2873,24,113,2324.637,1,67,80
2874,24,114,6921.754,-1,80,67
2875,24,115,2406.314,1,70,80
2876,24,116,2452.491,1,110,122
2877,24,117,2897.344,1,110,115
2878,24,118,3221.2790000000005,1,110,112
2879,24,119,6580.304,1,110,103
2880,25,0,2573.855,1,110,131
2881,25,1,2276.933,1,47,50
2882,25,2,6313.4230000000025,-1,50,44
2883,25,3,4063.28,-1,57,50
2884,25,4,2272.777,1,42,50
2885,25,5,7273.913,1,108,110
2886,25,6,7112.329000000002,-1,78,80
2887,25,7,4954.129,-1,110,92
2888,25,8,7277.9919999999975,-1,50,48
2889,25,9,10290.151,1,110,101
2890,25,10,2719.824,1,46,50
2891,25,11,4433.277,-1,80,83
2892,25,12,2834.537000000001,1,50,56
2893,25,13,3205.162000000001,1,50,47
2894,25,14,7905.951,1,110,124
2895,25,15,9726.995,-1,91,80
2896,25,16,5668.465,1,64,80
2897,25,17,6087.764,1,83,80
2898,25,18,5074.383,1,101,110
2899,25,19,5837.491,-1,56,50
2900,25,20,10204.94,-1,50,42
2901,25,21,4410.447,1,110,117
2902,25,22,3228.403,1,77,80
2903,25,23,3140.789,1,80,91
2904,25,24,5966.109,1,44,50
2905,25,25,2245.362,1,50,57
2906,25,26,5074.143,1,50,46
2907,25,27,3602.406,-1,110,108
2908,25,28,6713.8809999999985,-1,133,110
2909,25,29,8546.707,-1,131,110
2910,25,30,8338.258,1,126,110
2911,25,31,2436.319,1,110,133
2912,25,32,4491.683,1,110,126
2913,25,33,6058.228,1,48,50
2914,25,34,9096.82,-1,80,77
2915,25,35,8202.511,1,117,110
2916,25,36,4408.043,-1,80,64
2917,25,37,8096.268,1,80,78
2918,25,38,9448.103,-1,124,110
2919,25,39,2913.902,1,92,110
2920,25,40,6615.136,-1,128,110
2921,25,41,5430.728,1,50,58
2922,25,42,7244.234,-1,54,50
2923,25,43,9260.72,-1,80,69
2924,25,44,6270.738,1,105,110
2925,25,45,9983.241,-1,55,50
2926,25,46,6964.184,-1,96,80
2927,25,47,2931.4709999999995,-1,80,75
2928,25,48,5759.629,1,110,128
2929,25,49,3920.8,-1,59,50
2930,25,50,10235.104,1,110,119
2931,25,51,7471.273,1,52,50
2932,25,52,4530.887,-1,58,50
2933,25,53,4484.656,-1,119,110
2934,25,54,9936.325,1,74,80
2935,25,55,16153.568,-1,86,80
2936,25,56,3876.481,1,66,80
2937,25,57,5081.794,1,50,59
2938,25,58,7911.395,1,94,110
2939,25,59,3683.951,-1,110,87
2940,25,60,10024.49,1,75,80
2941,25,61,6029.848000000001,-1,50,45
2942,25,62,4898.047000000001,1,89,110
2943,25,63,10050.236,1,80,94
2944,25,64,9459.282,-1,110,98
2945,25,65,6726.878000000002,-1,94,80
2946,25,66,4227.071,-1,110,94
2947,25,67,2647.691,-1,80,66
2948,25,68,4261.383,1,50,54
2949,25,69,8863.916,-1,98,110
2950,25,70,9317.731,1,50,52
2951,25,71,5333.2040000000015,-1,110,89
2952,25,72,2054.79,1,87,110
2953,25,73,4031.124,-1,110,105
2954,25,74,4050.984,1,80,96
2955,25,75,2207.765,1,80,86
2956,25,76,9500.898,1,50,55
2957,25,77,3232.877,-1,80,74
2958,25,78,2478.6,1,45,50
2959,25,79,2495.215,1,69,80
2960,25,80,4797.221,1,50,53
2961,25,81,4452.768,-1,50,40
2962,25,82,2917.58,1,80,88
2963,25,83,7974.6169999999975,-1,115,110
2964,25,84,6034.191999999999,1,103,110
2965,25,85,4698.9,-1,90,80
2966,25,86,10533.239,-1,80,72
2967,25,87,5401.655,-1,93,80
2968,25,88,2049.338,1,80,90
2969,25,89,6868.522,-1,88,80
2970,25,90,8182.444,-1,80,70
2971,25,91,2063.279,1,80,93
2972,25,92,3914.681,-1,82,80
2973,25,93,2949.97,-1,50,41
2974,25,94,1976.353,1,96,110
2975,25,95,1498.183,1,80,85
2976,25,96,4731.632000000001,-1,60,50
2977,25,97,2406.173,1,41,50
2978,25,98,3846.133,-1,110,96
2979,25,99,5041.701,1,72,80
2980,25,100,3976.439,1,49,50
2981,25,101,6041.11,1,43,50
2982,25,102,10959.667,1,51,50
2983,25,103,2929.594,-1,112,110
2984,25,104,1842.801,1,40,50
2985,25,105,9067.473,-1,50,51
2986,25,106,9167.467,-1,85,80
2987,25,107,12136.964,-1,50,49
2988,25,108,2698.169000000001,1,50,43
2989,25,109,4628.875,1,80,82
2990,25,110,3754.417,1,50,60
2991,25,111,4177.62,-1,53,50
2992,25,112,3395.043,-1,122,110
2993,25,113,4928.446,1,67,80
2994,25,114,2868.349,-1,80,67
2995,25,115,9406.728,1,70,80
2996,25,116,7354.094,-1,110,122
2997,25,117,7369.732,1,110,115
2998,25,118,4304.453,1,110,112
2999,25,119,3459.006,-1,110,103
3000,26,0,3954.36,1,110,131
3001,26,1,3430.104000000001,1,47,50
3002,26,2,4790.332,-1,50,44
3003,26,3,2293.717,-1,57,50
3004,26,4,1600.204,1,42,50
3005,26,5,3382.276,1,108,110
3006,26,6,5924.823,-1,78,80
3007,26,7,3778.703,1,110,92
3008,26,8,5725.531999999997,-1,50,48
3009,26,9,5110.1579999999985,1,110,101
3010,26,10,2845.064000000001,1,46,50
3011,26,11,4896.907,-1,80,83
3012,26,12,3161.7340000000013,1,50,56
3013,26,13,4104.913,1,50,47
3014,26,14,3033.454,1,110,124
3015,26,15,3098.95,-1,91,80
3016,26,16,3006.867,1,64,80
3017,26,17,2611.25,1,83,80
3018,26,18,5021.21,-1,101,110
3019,26,19,5364.196999999999,-1,56,50
3020,26,20,15268.943,-1,50,42
3021,26,21,3485.132,-1,110,117
3022,26,22,7177.329000000002,-1,77,80
3023,26,23,3908.625,1,80,91
3024,26,24,2896.952,1,44,50
3025,26,25,7720.648,-1,50,57
3026,26,26,2694.369,-1,50,46
3027,26,27,5572.055,1,110,108
3028,26,28,10583.331,-1,133,110
3029,26,29,9587.822,-1,131,110
3030,26,30,3651.797,-1,126,110
3031,26,31,4992.643,1,110,133
3032,26,32,4595.107,-1,110,126
3033,26,33,4694.762,1,48,50
3034,26,34,7557.36,1,80,77
3035,26,35,2468.382,-1,117,110
3036,26,36,3474.492,-1,80,64
3037,26,37,2846.675,-1,80,78
3038,26,38,2255.533,-1,124,110
3039,26,39,3640.418,-1,92,110
3040,26,40,6962.221,-1,128,110
3041,26,41,3006.345,1,50,58
3042,26,42,4687.366,1,54,50
3043,26,43,2758.795,-1,80,69
3044,26,44,2739.147,1,105,110
3045,26,45,3927.039,-1,55,50
3046,26,46,4294.75,-1,96,80
3047,26,47,2454.979,1,80,75
3048,26,48,2496.827,1,110,128
3049,26,49,6324.076,1,59,50
3050,26,50,11780.841,1,110,119
3051,26,51,9034.696,-1,52,50
3052,26,52,2735.087,-1,58,50
3053,26,53,4886.065,-1,119,110
3054,26,54,8591.544,1,74,80
3055,26,55,5016.858,1,86,80
3056,26,56,3983.471,-1,66,80
3057,26,57,3944.317,1,50,59
3058,26,58,3322.85,1,94,110
3059,26,59,5648.852,-1,110,87
3060,26,60,3192.225,1,75,80
3061,26,61,5584.85,1,50,45
3062,26,62,3800.955,-1,89,110
3063,26,63,2762.286,1,80,94
3064,26,64,2369.886,-1,110,98
3065,26,65,4778.094,-1,94,80
3066,26,66,3005.013,-1,110,94
3067,26,67,3246.13,-1,80,66
3068,26,68,2716.2090000000007,1,50,54
3069,26,69,5576.069,-1,98,110
3070,26,70,2473.1420000000007,1,50,52
3071,26,71,3912.157,-1,110,89
3072,26,72,3462.278,1,87,110
3073,26,73,6806.876,-1,110,105
3074,26,74,3689.885,1,80,96
3075,26,75,4854.366,1,80,86
3076,26,76,2165.553,1,50,55
3077,26,77,2967.995,-1,80,74
3078,26,78,2533.616,1,45,50
3079,26,79,2814.158,-1,69,80
3080,26,80,2681.53,1,50,53
3081,26,81,6612.498000000001,-1,50,40
3082,26,82,2543.025,1,80,88
3083,26,83,3110.467,1,115,110
3084,26,84,2827.555,1,103,110
3085,26,85,2676.807,1,90,80
3086,26,86,4946.576,-1,80,72
3087,26,87,3069.226,-1,93,80
3088,26,88,2909.776,1,80,90
3089,26,89,2467.004,-1,88,80
3090,26,90,2153.84,-1,80,70
3091,26,91,2562.301,1,80,93
3092,26,92,2594.663,-1,82,80
3093,26,93,4674.205,-1,50,41
3094,26,94,4044.829,1,96,110
3095,26,95,3204.199,1,80,85
3096,26,96,3188.273,1,60,50
3097,26,97,1857.293,1,41,50
3098,26,98,2550.861,-1,110,96
3099,26,99,3109.831,1,72,80
3100,26,100,3238.687,1,49,50
3101,26,101,3525.751,1,43,50
3102,26,102,3750.855,1,51,50
3103,26,103,3371.85,1,112,110
3104,26,104,3067.5440000000012,1,40,50
3105,26,105,4316.018,1,50,51
3106,26,106,5624.833000000001,1,85,80
3107,26,107,5768.844,1,50,49
3108,26,108,4310.734,-1,50,43
3109,26,109,3845.923,1,80,82
3110,26,110,5282.875,1,50,60
3111,26,111,3154.436,1,53,50
3112,26,112,3155.11,-1,122,110
3113,26,113,3158.929,1,67,80
3114,26,114,3323.891,1,80,67
3115,26,115,4285.535,1,70,80
3116,26,116,3362.2340000000013,1,110,122
3117,26,117,5032.0920000000015,1,110,115
3118,26,118,2523.751,1,110,112
3119,26,119,5720.895,1,110,103
3120,27,0,1634.2720000000006,1,110,131
3121,27,1,3381.251,1,47,50
3122,27,2,5654.203,-1,50,44
3123,27,3,2911.667,-1,57,50
3124,27,4,5072.245,-1,42,50
3125,27,5,5156.361,-1,108,110
3126,27,6,6440.121,-1,78,80
3127,27,7,4220.8809999999985,-1,110,92
3128,27,8,4035.792,-1,50,48
3129,27,9,3726.873,-1,110,101
3130,27,10,3927.085,-1,46,50
3131,27,11,6430.405,-1,80,83
3132,27,12,3712.042,-1,50,56
3133,27,13,7043.878000000002,1,50,47
3134,27,14,3192.733,1,110,124
3135,27,15,7772.035,1,91,80
3136,27,16,4538.813,1,64,80
3137,27,17,4973.142,1,83,80
3138,27,18,7627.573,1,101,110
3139,27,19,8058.478,1,56,50
3140,27,20,4196.297000000001,-1,50,42
3141,27,21,8401.134,1,110,117
3142,27,22,7273.249,-1,77,80
3143,27,23,5805.11,1,80,91
3144,27,24,6627.435,1,44,50
3145,27,25,5796.05,-1,50,57
3146,27,26,5306.809,-1,50,46
3147,27,27,6284.7469999999985,-1,110,108
3148,27,28,5995.246,1,133,110
3149,27,29,6570.651,1,131,110
3150,27,30,3542.327,-1,126,110
3151,27,31,4593.874,-1,110,133
3152,27,32,8201.263,1,110,126
3153,27,33,2960.969,1,48,50
3154,27,34,5422.187,-1,80,77
3155,27,35,6118.182,-1,117,110
3156,27,36,4753.687,1,80,64
3157,27,37,6103.596,1,80,78
3158,27,38,3166.2,1,124,110
3159,27,39,2077.775,1,92,110
3160,27,40,2793.1490000000013,-1,128,110
3161,27,41,1761.971,1,50,58
3162,27,42,2598.195,-1,54,50
3163,27,43,1883.892,1,80,69
3164,27,44,3591.9190000000012,1,105,110
3165,27,45,2259.483,-1,55,50
3166,27,46,1895.624,-1,96,80
3167,27,47,2325.33,-1,80,75
3168,27,48,1899.811,1,110,128
3169,27,49,2326.667,-1,59,50
3170,27,50,1969.001,1,110,119
3171,27,51,2065.614,-1,52,50
3172,27,52,2554.223,-1,58,50
3173,27,53,2516.719,-1,119,110
3174,27,54,1687.995,1,74,80
3175,27,55,4735.542,-1,86,80
3176,27,56,1879.412,-1,66,80
3177,27,57,1839.355,1,50,59
3178,27,58,1714.704,1,94,110
3179,27,59,2315.388,-1,110,87
3180,27,60,3015.833,1,75,80
3181,27,61,2288.812,-1,50,45
3182,27,62,1425.4879999999994,1,89,110
3183,27,63,3827.167,1,80,94
3184,27,64,3103.408,-1,110,98
3185,27,65,3757.802,-1,94,80
3186,27,66,4216.771,1,110,94
3187,27,67,2605.559,-1,80,66
3188,27,68,3330.238,-1,50,54
3189,27,69,3604.612,1,98,110
3190,27,70,4480.564,1,50,52
3191,27,71,2731.316,-1,110,89
3192,27,72,3602.432,1,87,110
3193,27,73,3767.766,1,110,105
3194,27,74,5021.5909999999985,1,80,96
3195,27,75,5970.427,1,80,86
3196,27,76,3998.942,1,50,55
3197,27,77,4672.95,-1,80,74
3198,27,78,4111.8420000000015,1,45,50
3199,27,79,3268.259,1,69,80
3200,27,80,2048.961,1,50,53
3201,27,81,2841.402,-1,50,40
3202,27,82,4139.177,1,80,88
3203,27,83,4477.379,-1,115,110
3204,27,84,2071.375,-1,103,110
3205,27,85,4195.264,-1,90,80
3206,27,86,2468.563,-1,80,72
3207,27,87,2853.293,-1,93,80
3208,27,88,3875.861,1,80,90
3209,27,89,3800.704,-1,88,80
3210,27,90,2758.2,-1,80,70
3211,27,91,4489.419,1,80,93
3212,27,92,4576.46,-1,82,80
3213,27,93,2232.776,-1,50,41
3214,27,94,3329.848,1,96,110
3215,27,95,4914.487,1,80,85
3216,27,96,4604.038,1,60,50
3217,27,97,2672.665,-1,41,50
3218,27,98,4926.926,1,110,96
3219,27,99,4475.167,1,72,80
3220,27,100,3143.668,-1,49,50
3221,27,101,6849.225,-1,43,50
3222,27,102,2395.993,-1,51,50
3223,27,103,3890.698,-1,112,110
3224,27,104,5010.068,1,40,50
3225,27,105,3374.686,-1,50,51
3226,27,106,2589.66,-1,85,80
3227,27,107,3277.458,-1,50,49
3228,27,108,4888.513,1,50,43
3229,27,109,3538.1740000000004,1,80,82
3230,27,110,2017.232,1,50,60
3231,27,111,7481.734,-1,53,50
3232,27,112,3836.637,-1,122,110
3233,27,113,2667.166,1,67,80
3234,27,114,4229.895,-1,80,67
3235,27,115,4699.266,1,70,80
3236,27,116,1650.606,1,110,122
3237,27,117,3467.038,1,110,115
3238,27,118,2262.936,1,110,112
3239,27,119,6140.96,-1,110,103
3240,28,0,2420.685,1,110,131
3241,28,1,3499.168,1,47,50
3242,28,2,2986.17,-1,50,44
3243,28,3,5100.094,-1,57,50
3244,28,4,1725.954,1,42,50
3245,28,5,2108.725,1,108,110
3246,28,6,1724.844,1,78,80
3247,28,7,2432.793,-1,110,92
3248,28,8,1830.792,1,50,48
3249,28,9,1901.438,-1,110,101
3250,28,10,1768.948,1,46,50
3251,28,11,1780.24,-1,80,83
3252,28,12,1923.951,-1,50,56
3253,28,13,1376.2120000000002,-1,50,47
3254,28,14,1570.3429999999994,1,110,124
3255,28,15,1976.101,1,91,80
3256,28,16,2043.473,1,64,80
3257,28,17,2049.897,1,83,80
3258,28,18,1996.728,1,101,110
3259,28,19,2073.991,1,56,50
3260,28,20,2177.599,1,50,42
3261,28,21,1628.771,-1,110,117
3262,28,22,1985.741,1,77,80
3263,28,23,2123.308,1,80,91
3264,28,24,1968.519,1,44,50
3265,28,25,2070.932,1,50,57
3266,28,26,2660.077,-1,50,46
3267,28,27,2584.98,-1,110,108
3268,28,28,2274.049,-1,133,110
3269,28,29,1861.168,-1,131,110
3270,28,30,2473.36,-1,126,110
3271,28,31,1736.281,1,110,133
3272,28,32,1742.155,1,110,126
3273,28,33,2913.099,-1,48,50
3274,28,34,2627.482,-1,80,77
3275,28,35,1826.294,-1,117,110
3276,28,36,1354.626,-1,80,64
3277,28,37,1646.504,-1,80,78
3278,28,38,2885.32,-1,124,110
3279,28,39,1566.876,1,92,110
3280,28,40,4468.678,-1,128,110
3281,28,41,1771.2379999999994,-1,50,58
3282,28,42,2045.798,1,54,50
3283,28,43,2012.281,1,80,69
3284,28,44,5198.2,1,105,110
3285,28,45,4256.2170000000015,-1,55,50
3286,28,46,1661.0929999999994,1,96,80
3287,28,47,2058.237,1,80,75
3288,28,48,2207.346,-1,110,128
3289,28,49,2443.773,-1,59,50
3290,28,50,4032.071,1,110,119
3291,28,51,5208.3409999999985,-1,52,50
3292,28,52,5404.922,-1,58,50
3293,28,53,2616.782,-1,119,110
3294,28,54,3760.149,1,74,80
3295,28,55,3205.041,1,86,80
3296,28,56,4463.401,1,66,80
3297,28,57,1761.095,1,50,59
3298,28,58,2115.848,1,94,110
3299,28,59,1370.259,-1,110,87
3300,28,60,1849.079,1,75,80
3301,28,61,1562.185,-1,50,45
3302,28,62,1564.402,1,89,110
3303,28,63,2548.512,1,80,94
3304,28,64,2215.732,-1,110,98
3305,28,65,1978.714,-1,94,80
3306,28,66,1413.678,-1,110,94
3307,28,67,1406.06,-1,80,66
3308,28,68,1984.556,-1,50,54
3309,28,69,1729.361,-1,98,110
3310,28,70,1893.587,1,50,52
3311,28,71,1659.555,-1,110,89
3312,28,72,1861.601,1,87,110
3313,28,73,2189.725,-1,110,105
3314,28,74,1472.016,1,80,96
3315,28,75,2468.265,-1,80,86
3316,28,76,1835.74,1,50,55
3317,28,77,2070.189,1,80,74
3318,28,78,1764.396,1,45,50
3319,28,79,2566.94,1,69,80
3320,28,80,2159.33,-1,50,53
3321,28,81,2488.713,-1,50,40
3322,28,82,1611.4720000000002,1,80,88
3323,28,83,1414.435,-1,115,110
3324,28,84,2200.57,1,103,110
3325,28,85,2157.932,1,90,80
3326,28,86,1588.725,1,80,72
3327,28,87,1140.825,-1,93,80
3328,28,88,1770.784,1,80,90
3329,28,89,1158.955,-1,88,80
3330,28,90,1323.297,-1,80,70
3331,28,91,1678.715,1,80,93
3332,28,92,2269.262,-1,82,80
3333,28,93,2093.765,-1,50,41
3334,28,94,2250.652,1,96,110
3335,28,95,2292.908,1,80,85
3336,28,96,2159.21,1,60,50
3337,28,97,1787.445,1,41,50
3338,28,98,1305.127,-1,110,96
3339,28,99,1742.888,1,72,80
3340,28,100,1798.86,1,49,50
3341,28,101,1404.8670000000006,1,43,50
3342,28,102,3310.125,1,51,50
3343,28,103,2951.5290000000005,-1,112,110
3344,28,104,2557.18,1,40,50
3345,28,105,1978.016,1,50,51
3346,28,106,2645.023,1,85,80
3347,28,107,1501.464,1,50,49
3348,28,108,1488.466,-1,50,43
3349,28,109,1986.598,1,80,82
3350,28,110,1781.49,1,50,60
3351,28,111,2184.128,-1,53,50
3352,28,112,1408.63,-1,122,110
3353,28,113,1646.805,1,67,80
3354,28,114,2586.648,-1,80,67
3355,28,115,2204.263,1,70,80
3356,28,116,2057.507,-1,110,122
3357,28,117,1726.428,1,110,115
3358,28,118,1897.421,1,110,112
3359,28,119,2529.854,-1,110,103
3360,29,0,2625.011,1,110,131
3361,29,1,2022.252,1,47,50
3362,29,2,1587.345,-1,50,44
3363,29,3,2544.321,1,57,50
3364,29,4,1134.701,1,42,50
3365,29,5,2711.432,1,108,110
3366,29,6,2270.95,1,78,80
3367,29,7,1572.9920000000006,-1,110,92
3368,29,8,1417.839,1,50,48
3369,29,9,1800.773,-1,110,101
3370,29,10,2680.177,1,46,50
3371,29,11,1480.3010000000006,1,80,83
3372,29,12,2127.983,1,50,56
3373,29,13,1363.34,1,50,47
3374,29,14,2241.911,1,110,124
3375,29,15,1507.8429999999994,-1,91,80
3376,29,16,1436.8870000000006,1,64,80
3377,29,17,2441.337,1,83,80
3378,29,18,2046.589,1,101,110
3379,29,19,3059.759,1,56,50
3380,29,20,2743.615,-1,50,42
3381,29,21,2354.465,1,110,117
3382,29,22,1772.96,-1,77,80
3383,29,23,1193.783,1,80,91
3384,29,24,1566.408,1,44,50
3385,29,25,2047.311,-1,50,57
3386,29,26,3993.035,-1,50,46
3387,29,27,3554.465,-1,110,108
3388,29,28,1699.0120000000006,-1,133,110
3389,29,29,1700.664,-1,131,110
3390,29,30,1732.599,-1,126,110
3391,29,31,1333.759,1,110,133
3392,29,32,3034.337,-1,110,126
