,parcode,rt,choice,trial,item_left,item_right
0,1,1734.284,1,0,1.170500554541026,1.9898509427197442
1,1,6555.37,-1,1,-1.2875506099951286,-1.170500554541026
2,1,3174.566,-1,2,-1.170500554541026,-1.4046006654492311
3,1,2877.579,1,3,-0.8973837584814532,-1.170500554541026
4,1,1806.31,1,4,-1.4826340357519663,-1.170500554541026
5,1,3636.816,-1,5,1.092467184238291,1.170500554541026
6,1,3650.266,1,6,-0.07803337030273506,0.0
7,1,3078.223,-1,7,1.170500554541026,0.4682002218164104
8,1,1259.268,1,8,-1.170500554541026,-1.248533924843761
9,1,3440.738,-1,9,1.170500554541026,0.8193503881787182
10,1,5698.026999999999,1,10,-1.3265672951464962,-1.170500554541026
11,1,8224.466999999999,1,11,0.0,0.1170500554541026
12,1,2626.168,1,12,-1.170500554541026,-0.9364004436328208
13,1,1991.413,-1,13,-1.170500554541026,-1.2875506099951286
14,1,1671.149,1,14,1.170500554541026,1.7167341466601715
15,1,2607.607,-1,15,0.4291835366650429,0.0
16,1,1527.826,1,16,-0.6242669624218805,0.0
17,1,5043.16,-1,17,0.1170500554541026,0.0
18,1,2267.665,1,18,0.8193503881787182,1.170500554541026
19,1,4499.543,-1,19,-0.9364004436328208,-1.170500554541026
20,1,5571.061,-1,20,-1.170500554541026,-1.4826340357519663
21,1,2045.641,1,21,1.170500554541026,1.4436173506005987
22,1,1402.112,1,22,-0.1170500554541026,0.0
23,1,2736.625,1,23,0.0,0.4291835366650429
24,1,2065.604,1,24,-1.4046006654492311,-1.170500554541026
25,1,3058.203,1,25,-1.170500554541026,-0.8973837584814532
26,1,1613.454,1,26,-1.170500554541026,-1.3265672951464962
27,1,1931.482,1,27,1.170500554541026,1.092467184238291
28,1,4895.517,-1,28,2.0678843130224793,1.170500554541026
29,1,3197.86,1,29,1.9898509427197442,1.170500554541026
30,1,2000.688,1,30,1.7947675169629065,1.170500554541026
31,1,1921.251,1,31,1.170500554541026,2.0678843130224793
32,1,2050.4970000000008,1,32,1.170500554541026,1.7947675169629065
33,1,2219.756,1,33,-1.248533924843761,-1.170500554541026
34,1,1635.473,1,34,0.0,-0.1170500554541026
35,1,5608.432,-1,35,1.4436173506005987,1.170500554541026
36,1,4443.018,-1,36,0.0,-0.6242669624218805
37,1,2620.927,1,37,0.0,-0.07803337030273506
38,1,1725.9029999999998,1,38,1.7167341466601715,1.170500554541026
39,1,3225.23,1,39,0.4682002218164104,1.170500554541026
40,1,1686.53,-1,40,1.8728008872656416,1.170500554541026
41,1,2010.532,1,41,-1.170500554541026,-0.8583670733300858
42,1,2244.929,-1,42,-1.0144338139355558,-1.170500554541026
43,1,2092.94,-1,43,0.0,-0.4291835366650429
44,1,1361.319,1,44,0.9754171287841883,1.170500554541026
45,1,1596.589,1,45,-0.9754171287841883,-1.170500554541026
46,1,2850.121,-1,46,0.6242669624218805,0.0
47,1,1380.8970000000006,1,47,0.0,-0.19508342575683765
48,1,1391.672,1,48,1.170500554541026,1.8728008872656416
49,1,2101.903,-1,49,-0.8193503881787182,-1.170500554541026
50,1,1582.34,1,50,1.170500554541026,1.5216507209033339
51,1,2320.312,-1,51,-1.092467184238291,-1.170500554541026
52,1,2184.782,-1,52,-0.8583670733300858,-1.170500554541026
53,1,2602.684,-1,53,1.5216507209033339,1.170500554541026
54,1,2890.742,1,54,-0.2341001109082052,0.0
55,1,1954.547,1,55,0.2341001109082052,0.0
56,1,1901.984,1,56,-0.5462335921191455,0.0
57,1,3133.506,1,57,-1.170500554541026,-0.8193503881787182
58,1,2545.418,1,58,0.5462335921191455,1.170500554541026
59,1,2023.468,-1,59,1.170500554541026,0.27311679605957273
60,1,3330.755,1,60,-0.19508342575683765,0.0
61,1,1866.57,-1,61,-1.170500554541026,-1.3655839802978638
62,1,1604.858,1,62,0.3511501663623078,1.170500554541026
63,1,2458.127,1,63,0.0,0.5462335921191455
64,1,4970.636,-1,64,1.170500554541026,0.7023003327246156
65,1,3115.157,-1,65,0.5462335921191455,0.0
66,1,3128.098,-1,66,1.170500554541026,0.5462335921191455
67,1,3745.136,-1,67,0.0,-0.5462335921191455
68,1,3673.352,1,68,-1.170500554541026,-1.0144338139355558
69,1,4942.765,1,69,0.7023003327246156,1.170500554541026
70,1,2224.593,-1,70,-1.170500554541026,-1.092467184238291
71,1,2997.098,1,71,1.170500554541026,0.3511501663623078
72,1,1391.7379999999994,1,72,0.27311679605957273,1.170500554541026
73,1,3340.985,-1,73,1.170500554541026,0.9754171287841883
74,1,1648.785,1,74,0.0,0.6242669624218805
75,1,1990.089,-1,75,0.0,0.2341001109082052
76,1,2490.532,1,76,-1.170500554541026,-0.9754171287841883
77,1,2508.0170000000007,-1,77,0.0,-0.2341001109082052
78,1,2293.524,1,78,-1.3655839802978638,-1.170500554541026
79,1,3004.818,1,79,-0.4291835366650429,0.0
80,1,3496.366,1,80,-1.170500554541026,-1.0534504990869233
81,1,2849.513,1,81,-1.170500554541026,-1.5606674060547012
82,1,1540.3929999999998,1,82,0.0,0.31213348121094026
83,1,2342.863,-1,83,1.3655839802978638,1.170500554541026
84,1,2502.521,1,84,0.8973837584814532,1.170500554541026
85,1,1799.6270000000006,-1,85,0.3901668515136753,0.0
86,1,5352.23,1,86,0.0,-0.31213348121094026
87,1,2424.21,-1,87,0.5072169069677779,0.0
88,1,1269.404,1,88,0.0,0.3901668515136753
89,1,2779.2740000000013,-1,89,0.31213348121094026,0.0
90,1,2537.132,-1,90,0.0,-0.3901668515136753
91,1,2351.272,1,91,0.0,0.5072169069677779
92,1,2358.716,-1,92,0.07803337030273506,0.0
93,1,2684.724,-1,93,-1.170500554541026,-1.5216507209033339
94,1,1983.477,1,94,0.6242669624218805,1.170500554541026
95,1,4650.79,1,95,0.0,0.19508342575683765
96,1,3835.065,-1,96,-0.7803337030273506,-1.170500554541026
97,1,3849.206,1,97,-1.5216507209033339,-1.170500554541026
98,1,3243.343,-1,98,1.170500554541026,0.6242669624218805
99,1,1644.5839999999994,1,99,-0.31213348121094026,0.0
100,1,1274.981,1,100,-1.2095172396923934,-1.170500554541026
101,1,2589.055,1,101,-1.4436173506005987,-1.170500554541026
102,1,2300.565,-1,102,-1.1314838693896585,-1.170500554541026
103,1,2922.026,-1,103,1.248533924843761,1.170500554541026
104,1,1135.847,1,104,-1.5606674060547012,-1.170500554541026
105,1,1991.672,1,105,-1.170500554541026,-1.1314838693896585
106,1,1851.808,-1,106,0.19508342575683765,0.0
107,1,1321.034,1,107,-1.170500554541026,-1.2095172396923934
108,1,4003.124,1,108,-1.170500554541026,-1.4436173506005987
109,1,1954.281,-1,109,0.0,0.07803337030273506
110,1,2030.128,1,110,-1.170500554541026,-0.7803337030273506
111,1,1964.125,-1,111,-1.0534504990869233,-1.170500554541026
112,1,2014.069,-1,112,1.6387007763574364,1.170500554541026
113,1,1598.829,1,113,-0.5072169069677779,0.0
114,1,1453.6029999999994,1,114,0.0,-0.5072169069677779
115,1,1977.727,1,115,-0.3901668515136753,0.0
116,1,1623.8970000000006,1,116,1.170500554541026,1.6387007763574364
117,1,2901.364,1,117,1.170500554541026,1.3655839802978638
118,1,1565.164,1,118,1.170500554541026,1.248533924843761
119,1,1559.884,1,119,1.170500554541026,0.8973837584814532
120,2,6228.547,1,0,1.170500554541026,1.9898509427197442
121,2,6635.751,1,1,-1.2875506099951286,-1.170500554541026
122,2,4766.7440000000015,-1,2,-1.170500554541026,-1.4046006654492311
123,2,10945.402,-1,3,-0.8973837584814532,-1.170500554541026
124,2,5673.265,1,4,-1.4826340357519663,-1.170500554541026
125,2,46657.359,1,5,1.092467184238291,1.170500554541026
126,2,7750.691,-1,6,-0.07803337030273506,0.0
127,2,9776.843,-1,7,1.170500554541026,0.4682002218164104
128,2,7758.235,1,8,-1.170500554541026,-1.248533924843761
129,2,44526.337,-1,9,1.170500554541026,0.8193503881787182
130,2,10806.455,1,10,-1.3265672951464962,-1.170500554541026
131,2,5936.281,1,11,0.0,0.1170500554541026
132,2,22118.048,-1,12,-1.170500554541026,-0.9364004436328208
133,2,7867.571999999999,-1,13,-1.170500554541026,-1.2875506099951286
134,2,24336.379,1,14,1.170500554541026,1.7167341466601715
135,2,12568.18,-1,15,0.4291835366650429,0.0
136,2,7216.420999999998,1,16,-0.6242669624218805,0.0
137,2,24450.946,-1,17,0.1170500554541026,0.0
138,2,20652.52,1,18,0.8193503881787182,1.170500554541026
139,2,9962.632,-1,19,-0.9364004436328208,-1.170500554541026
140,2,15264.738,-1,20,-1.170500554541026,-1.4826340357519663
141,2,14577.04,1,21,1.170500554541026,1.4436173506005987
142,2,10502.538,-1,22,-0.1170500554541026,0.0
143,2,8938.346,1,23,0.0,0.4291835366650429
144,2,8371.705,1,24,-1.4046006654492311,-1.170500554541026
145,2,8634.889000000001,-1,25,-1.170500554541026,-0.8973837584814532
146,2,9256.349,-1,26,-1.170500554541026,-1.3265672951464962
147,2,98982.33,-1,27,1.170500554541026,1.092467184238291
148,2,71123.695,-1,28,2.0678843130224793,1.170500554541026
149,2,14323.977,1,29,1.9898509427197442,1.170500554541026
150,2,11246.8,1,30,1.7947675169629065,1.170500554541026
151,2,5729.5819999999985,1,31,1.170500554541026,2.0678843130224793
152,2,15507.063,1,32,1.170500554541026,1.7947675169629065
153,2,9584.002,-1,33,-1.248533924843761,-1.170500554541026
154,2,15060.043,1,34,0.0,-0.1170500554541026
155,2,13755.941,1,35,1.4436173506005987,1.170500554541026
156,2,4962.179,-1,36,0.0,-0.6242669624218805
157,2,7058.905,1,37,0.0,-0.07803337030273506
158,2,6745.102,1,38,1.7167341466601715,1.170500554541026
159,2,5223.511,1,39,0.4682002218164104,1.170500554541026
160,2,6980.156,-1,40,1.8728008872656416,1.170500554541026
161,2,7323.464,1,41,-1.170500554541026,-0.8583670733300858
162,2,12685.652,1,42,-1.0144338139355558,-1.170500554541026
163,2,6234.269,-1,43,0.0,-0.4291835366650429
164,2,7470.982,1,44,0.9754171287841883,1.170500554541026
165,2,19803.463,-1,45,-0.9754171287841883,-1.170500554541026
166,2,4605.276,-1,46,0.6242669624218805,0.0
167,2,10068.237,1,47,0.0,-0.19508342575683765
168,2,4717.351,1,48,1.170500554541026,1.8728008872656416
169,2,10498.412,-1,49,-0.8193503881787182,-1.170500554541026
170,2,4786.207,1,50,1.170500554541026,1.5216507209033339
171,2,17514.256999999998,-1,51,-1.092467184238291,-1.170500554541026
172,2,7383.357,-1,52,-0.8583670733300858,-1.170500554541026
173,2,19661.432,-1,53,1.5216507209033339,1.170500554541026
174,2,11765.399,1,54,-0.2341001109082052,0.0
175,2,11965.88,-1,55,0.2341001109082052,0.0
176,2,3989.236,1,56,-0.5462335921191455,0.0
177,2,9313.449,-1,57,-1.170500554541026,-0.8193503881787182
178,2,10580.194,1,58,0.5462335921191455,1.170500554541026
179,2,6636.98,-1,59,1.170500554541026,0.27311679605957273
180,2,6202.516,1,60,-0.19508342575683765,0.0
181,2,28899.841,1,61,-1.170500554541026,-1.3655839802978638
182,2,9338.527,1,62,0.3511501663623078,1.170500554541026
183,2,4110.953,1,63,0.0,0.5462335921191455
184,2,5941.794,-1,64,1.170500554541026,0.7023003327246156
185,2,2614.124,-1,65,0.5462335921191455,0.0
186,2,5470.66,-1,66,1.170500554541026,0.5462335921191455
187,2,11858.61,-1,67,0.0,-0.5462335921191455
188,2,4419.104,1,68,-1.170500554541026,-1.0144338139355558
189,2,8740.806,1,69,0.7023003327246156,1.170500554541026
190,2,11192.925,-1,70,-1.170500554541026,-1.092467184238291
191,2,11204.062,-1,71,1.170500554541026,0.3511501663623078
192,2,7304.684,1,72,0.27311679605957273,1.170500554541026
193,2,8140.553000000001,1,73,1.170500554541026,0.9754171287841883
194,2,10329.606,1,74,0.0,0.6242669624218805
195,2,6838.95,1,75,0.0,0.2341001109082052
196,2,7156.253000000002,1,76,-1.170500554541026,-0.9754171287841883
197,2,23243.99700000001,-1,77,0.0,-0.2341001109082052
198,2,8328.395,1,78,-1.3655839802978638,-1.170500554541026
199,2,2418.19,1,79,-0.4291835366650429,0.0
200,2,7567.203,1,80,-1.170500554541026,-1.0534504990869233
201,2,3128.203,-1,81,-1.170500554541026,-1.5606674060547012
202,2,4282.243,1,82,0.0,0.31213348121094026
203,2,11387.791,1,83,1.3655839802978638,1.170500554541026
204,2,6243.72,1,84,0.8973837584814532,1.170500554541026
205,2,7674.5,1,85,0.3901668515136753,0.0
206,2,13351.711,-1,86,0.0,-0.31213348121094026
207,2,15023.755,-1,87,0.5072169069677779,0.0
208,2,4556.762,1,88,0.0,0.3901668515136753
209,2,8987.876,-1,89,0.31213348121094026,0.0
210,2,10619.167,-1,90,0.0,-0.3901668515136753
211,2,3456.776,1,91,0.0,0.5072169069677779
212,2,6730.993,-1,92,0.07803337030273506,0.0
213,2,6897.651999999999,-1,93,-1.170500554541026,-1.5216507209033339
214,2,7074.3719999999985,1,94,0.6242669624218805,1.170500554541026
215,2,4346.168,1,95,0.0,0.19508342575683765
216,2,15269.582,-1,96,-0.7803337030273506,-1.170500554541026
217,2,5680.574000000001,1,97,-1.5216507209033339,-1.170500554541026
218,2,6420.155,-1,98,1.170500554541026,0.6242669624218805
219,2,7512.655,1,99,-0.31213348121094026,0.0
220,2,4470.683,1,100,-1.2095172396923934,-1.170500554541026
221,2,15616.594,-1,101,-1.4436173506005987,-1.170500554541026
222,2,5593.92,-1,102,-1.1314838693896585,-1.170500554541026
223,2,7397.905,1,103,1.248533924843761,1.170500554541026
224,2,4188.963,1,104,-1.5606674060547012,-1.170500554541026
225,2,11009.734,1,105,-1.170500554541026,-1.1314838693896585
226,2,12227.283,1,106,0.19508342575683765,0.0
227,2,6611.683000000001,-1,107,-1.170500554541026,-1.2095172396923934
228,2,6072.679,-1,108,-1.170500554541026,-1.4436173506005987
229,2,6999.655,1,109,0.0,0.07803337030273506
230,2,3228.329,1,110,-1.170500554541026,-0.7803337030273506
231,2,4967.049,-1,111,-1.0534504990869233,-1.170500554541026
232,2,12912.862,1,112,1.6387007763574364,1.170500554541026
233,2,5397.382,1,113,-0.5072169069677779,0.0
234,2,9558.551,-1,114,0.0,-0.5072169069677779
235,2,6003.087,1,115,-0.3901668515136753,0.0
236,2,18304.296,1,116,1.170500554541026,1.6387007763574364
237,2,4058.755,1,117,1.170500554541026,1.3655839802978638
238,2,23107.279,1,118,1.170500554541026,1.248533924843761
239,2,7476.425,-1,119,1.170500554541026,0.8973837584814532
240,3,8280.333,1,0,1.170500554541026,1.9898509427197442
241,3,7167.467,1,1,-1.2875506099951286,-1.170500554541026
242,3,8070.478,1,2,-1.170500554541026,-1.4046006654492311
243,3,4998.854,-1,3,-0.8973837584814532,-1.170500554541026
244,3,7020.031,1,4,-1.4826340357519663,-1.170500554541026
245,3,5506.326,1,5,1.092467184238291,1.170500554541026
246,3,5346.013000000001,1,6,-0.07803337030273506,0.0
247,3,6129.209,-1,7,1.170500554541026,0.4682002218164104
248,3,9167.056,-1,8,-1.170500554541026,-1.248533924843761
249,3,7253.443,1,9,1.170500554541026,0.8193503881787182
250,3,5005.184,1,10,-1.3265672951464962,-1.170500554541026
251,3,5040.511,1,11,0.0,0.1170500554541026
252,3,7641.814,-1,12,-1.170500554541026,-0.9364004436328208
253,3,3350.826,1,13,-1.170500554541026,-1.2875506099951286
254,3,3213.827,1,14,1.170500554541026,1.7167341466601715
255,3,5841.773,-1,15,0.4291835366650429,0.0
256,3,2625.496,1,16,-0.6242669624218805,0.0
257,3,4849.473,1,17,0.1170500554541026,0.0
258,3,3451.203,1,18,0.8193503881787182,1.170500554541026
259,3,7469.5880000000025,-1,19,-0.9364004436328208,-1.170500554541026
260,3,3372.03,-1,20,-1.170500554541026,-1.4826340357519663
261,3,6138.022,-1,21,1.170500554541026,1.4436173506005987
262,3,6402.819,-1,22,-0.1170500554541026,0.0
263,3,4444.338,1,23,0.0,0.4291835366650429
264,3,2608.586,1,24,-1.4046006654492311,-1.170500554541026
265,3,5440.031999999998,1,25,-1.170500554541026,-0.8973837584814532
266,3,5260.323,-1,26,-1.170500554541026,-1.3265672951464962
267,3,2857.7,1,27,1.170500554541026,1.092467184238291
268,3,4622.699000000001,-1,28,2.0678843130224793,1.170500554541026
269,3,4792.599,-1,29,1.9898509427197442,1.170500554541026
270,3,6148.765,-1,30,1.7947675169629065,1.170500554541026
271,3,4290.5,1,31,1.170500554541026,2.0678843130224793
272,3,5208.041,-1,32,1.170500554541026,1.7947675169629065
273,3,3034.445,1,33,-1.248533924843761,-1.170500554541026
274,3,3584.427,-1,34,0.0,-0.1170500554541026
275,3,6892.869000000002,-1,35,1.4436173506005987,1.170500554541026
276,3,2476.989,1,36,0.0,-0.6242669624218805
277,3,5866.721,-1,37,0.0,-0.07803337030273506
278,3,7484.359,1,38,1.7167341466601715,1.170500554541026
279,3,2500.835,1,39,0.4682002218164104,1.170500554541026
280,3,3428.153,-1,40,1.8728008872656416,1.170500554541026
281,3,2432.49,1,41,-1.170500554541026,-0.8583670733300858
282,3,4460.86,-1,42,-1.0144338139355558,-1.170500554541026
283,3,3493.201,-1,43,0.0,-0.4291835366650429
284,3,3374.0890000000004,1,44,0.9754171287841883,1.170500554541026
285,3,2623.875,-1,45,-0.9754171287841883,-1.170500554541026
286,3,4936.822,-1,46,0.6242669624218805,0.0
287,3,6600.851,-1,47,0.0,-0.19508342575683765
288,3,3039.455,1,48,1.170500554541026,1.8728008872656416
289,3,4171.929,-1,49,-0.8193503881787182,-1.170500554541026
290,3,2621.556,1,50,1.170500554541026,1.5216507209033339
291,3,4225.163,-1,51,-1.092467184238291,-1.170500554541026
292,3,1730.156,1,52,-0.8583670733300858,-1.170500554541026
293,3,2161.17,-1,53,1.5216507209033339,1.170500554541026
294,3,5793.635,-1,54,-0.2341001109082052,0.0
295,3,6880.526,-1,55,0.2341001109082052,0.0
296,3,1503.644,1,56,-0.5462335921191455,0.0
297,3,3599.021,1,57,-1.170500554541026,-0.8193503881787182
298,3,4647.386,1,58,0.5462335921191455,1.170500554541026
299,3,2104.608,-1,59,1.170500554541026,0.27311679605957273
300,3,3663.508,1,60,-0.19508342575683765,0.0
301,3,1428.75,1,61,-1.170500554541026,-1.3655839802978638
302,3,1818.229,1,62,0.3511501663623078,1.170500554541026
303,3,2621.649000000001,1,63,0.0,0.5462335921191455
304,3,1861.231,-1,64,1.170500554541026,0.7023003327246156
305,3,1986.401,-1,65,0.5462335921191455,0.0
306,3,2072.406,1,66,1.170500554541026,0.5462335921191455
307,3,2149.11,-1,67,0.0,-0.5462335921191455
308,3,1708.406,1,68,-1.170500554541026,-1.0144338139355558
309,3,1849.511,1,69,0.7023003327246156,1.170500554541026
310,3,1632.089,1,70,-1.170500554541026,-1.092467184238291
311,3,1427.93,-1,71,1.170500554541026,0.3511501663623078
312,3,2591.58,1,72,0.27311679605957273,1.170500554541026
313,3,3163.686,1,73,1.170500554541026,0.9754171287841883
314,3,2995.507,1,74,0.0,0.6242669624218805
315,3,2408.271,1,75,0.0,0.2341001109082052
316,3,1715.706,1,76,-1.170500554541026,-0.9754171287841883
317,3,4161.4940000000015,-1,77,0.0,-0.2341001109082052
318,3,4250.03,1,78,-1.3655839802978638,-1.170500554541026
319,3,1883.502,1,79,-0.4291835366650429,0.0
320,3,3463.021,1,80,-1.170500554541026,-1.0534504990869233
321,3,4614.063,1,81,-1.170500554541026,-1.5606674060547012
322,3,3670.417,1,82,0.0,0.31213348121094026
323,3,1955.291,-1,83,1.3655839802978638,1.170500554541026
324,3,2539.423,1,84,0.8973837584814532,1.170500554541026
325,3,2504.688,-1,85,0.3901668515136753,0.0
326,3,2264.841,-1,86,0.0,-0.31213348121094026
327,3,3871.268,-1,87,0.5072169069677779,0.0
328,3,2988.316,-1,88,0.0,0.3901668515136753
329,3,3182.992,-1,89,0.31213348121094026,0.0
330,3,2879.908,1,90,0.0,-0.3901668515136753
331,3,3832.523,1,91,0.0,0.5072169069677779
332,3,3374.473,-1,92,0.07803337030273506,0.0
333,3,4296.539000000002,-1,93,-1.170500554541026,-1.5216507209033339
334,3,1664.744,1,94,0.6242669624218805,1.170500554541026
335,3,1615.953,1,95,0.0,0.19508342575683765
336,3,3923.588,1,96,-0.7803337030273506,-1.170500554541026
337,3,4026.835,1,97,-1.5216507209033339,-1.170500554541026
338,3,1902.077,-1,98,1.170500554541026,0.6242669624218805
339,3,5104.126,1,99,-0.31213348121094026,0.0
340,3,2092.791,1,100,-1.2095172396923934,-1.170500554541026
341,3,1598.885,1,101,-1.4436173506005987,-1.170500554541026
342,3,3318.872000000001,-1,102,-1.1314838693896585,-1.170500554541026
343,3,4246.255,-1,103,1.248533924843761,1.170500554541026
344,3,4098.269,1,104,-1.5606674060547012,-1.170500554541026
345,3,4183.0340000000015,-1,105,-1.170500554541026,-1.1314838693896585
346,3,1733.372,1,106,0.19508342575683765,0.0
347,3,4202.163,1,107,-1.170500554541026,-1.2095172396923934
348,3,2356.3,-1,108,-1.170500554541026,-1.4436173506005987
349,3,1870.494,1,109,0.0,0.07803337030273506
350,3,1738.671,1,110,-1.170500554541026,-0.7803337030273506
351,3,2082.474,1,111,-1.0534504990869233,-1.170500554541026
352,3,2463.471,1,112,1.6387007763574364,1.170500554541026
353,3,1543.8870000000006,1,113,-0.5072169069677779,0.0
354,3,2664.14,-1,114,0.0,-0.5072169069677779
355,3,6240.445,1,115,-0.3901668515136753,0.0
356,3,2168.694,1,116,1.170500554541026,1.6387007763574364
357,3,2788.367,-1,117,1.170500554541026,1.3655839802978638
358,3,1900.364,1,118,1.170500554541026,1.248533924843761
359,3,2711.223,1,119,1.170500554541026,0.8973837584814532
360,4,3753.06,1,0,1.170500554541026,1.9898509427197442
361,4,2852.768,1,1,-1.2875506099951286,-1.170500554541026
362,4,7578.454000000002,1,2,-1.170500554541026,-1.4046006654492311
363,4,19368.146,-1,3,-0.8973837584814532,-1.170500554541026
364,4,3215.312,1,4,-1.4826340357519663,-1.170500554541026
365,4,1942.017,1,5,1.092467184238291,1.170500554541026
366,4,1587.571,1,6,-0.07803337030273506,0.0
367,4,2246.732,-1,7,1.170500554541026,0.4682002218164104
368,4,2550.21,-1,8,-1.170500554541026,-1.248533924843761
369,4,5602.05,1,9,1.170500554541026,0.8193503881787182
370,4,1793.4820000000002,1,10,-1.3265672951464962,-1.170500554541026
371,4,5781.335,1,11,0.0,0.1170500554541026
372,4,1880.978,1,12,-1.170500554541026,-0.9364004436328208
373,4,3078.102000000001,1,13,-1.170500554541026,-1.2875506099951286
374,4,9843.826,1,14,1.170500554541026,1.7167341466601715
375,4,11180.726,-1,15,0.4291835366650429,0.0
376,4,1902.12,1,16,-0.6242669624218805,0.0
377,4,1910.42,1,17,0.1170500554541026,0.0
378,4,2634.23,1,18,0.8193503881787182,1.170500554541026
379,4,2586.458,1,19,-0.9364004436328208,-1.170500554541026
380,4,4955.317,1,20,-1.170500554541026,-1.4826340357519663
381,4,2957.897,1,21,1.170500554541026,1.4436173506005987
382,4,11515.408,1,22,-0.1170500554541026,0.0
383,4,2351.575,1,23,0.0,0.4291835366650429
384,4,3137.373,1,24,-1.4046006654492311,-1.170500554541026
385,4,1736.937,1,25,-1.170500554541026,-0.8973837584814532
386,4,2057.448,1,26,-1.170500554541026,-1.3265672951464962
387,4,11483.744,1,27,1.170500554541026,1.092467184238291
388,4,1873.12,-1,28,2.0678843130224793,1.170500554541026
389,4,3187.65,-1,29,1.9898509427197442,1.170500554541026
390,4,5174.183,-1,30,1.7947675169629065,1.170500554541026
391,4,6284.96,1,31,1.170500554541026,2.0678843130224793
392,4,2648.8920000000007,1,32,1.170500554541026,1.7947675169629065
393,4,3745.233,1,33,-1.248533924843761,-1.170500554541026
394,4,5846.379,1,34,0.0,-0.1170500554541026
395,4,2244.629,1,35,1.4436173506005987,1.170500554541026
396,4,4492.143,-1,36,0.0,-0.6242669624218805
397,4,2831.068,1,37,0.0,-0.07803337030273506
398,4,5841.602,1,38,1.7167341466601715,1.170500554541026
399,4,2507.425,1,39,0.4682002218164104,1.170500554541026
400,4,17445.725,-1,40,1.8728008872656416,1.170500554541026
401,4,1605.944,1,41,-1.170500554541026,-0.8583670733300858
402,4,4883.308,-1,42,-1.0144338139355558,-1.170500554541026
403,4,1537.096,1,43,0.0,-0.4291835366650429
404,4,2097.817,1,44,0.9754171287841883,1.170500554541026
405,4,6545.8409999999985,1,45,-0.9754171287841883,-1.170500554541026
406,4,5068.047000000001,-1,46,0.6242669624218805,0.0
407,4,10908.364,1,47,0.0,-0.19508342575683765
408,4,4783.775,1,48,1.170500554541026,1.8728008872656416
409,4,5229.633,1,49,-0.8193503881787182,-1.170500554541026
410,4,3058.329,1,50,1.170500554541026,1.5216507209033339
411,4,6826.916,1,51,-1.092467184238291,-1.170500554541026
412,4,3045.3459999999995,-1,52,-0.8583670733300858,-1.170500554541026
413,4,3269.93,1,53,1.5216507209033339,1.170500554541026
414,4,1471.687,1,54,-0.2341001109082052,0.0
415,4,4238.808,1,55,0.2341001109082052,0.0
416,4,1535.682,1,56,-0.5462335921191455,0.0
417,4,1519.3570000000002,1,57,-1.170500554541026,-0.8193503881787182
418,4,2981.751,1,58,0.5462335921191455,1.170500554541026
419,4,4321.7829999999985,-1,59,1.170500554541026,0.27311679605957273
420,4,1608.882,1,60,-0.19508342575683765,0.0
421,4,9537.109,-1,61,-1.170500554541026,-1.3655839802978638
422,4,1774.399,1,62,0.3511501663623078,1.170500554541026
423,4,3304.423,1,63,0.0,0.5462335921191455
424,4,3033.366,-1,64,1.170500554541026,0.7023003327246156
425,4,6061.712,-1,65,0.5462335921191455,0.0
426,4,2043.157,1,66,1.170500554541026,0.5462335921191455
427,4,2237.002,-1,67,0.0,-0.5462335921191455
428,4,1632.804,1,68,-1.170500554541026,-1.0144338139355558
429,4,1772.698,1,69,0.7023003327246156,1.170500554541026
430,4,4730.624,1,70,-1.170500554541026,-1.092467184238291
431,4,12463.602,1,71,1.170500554541026,0.3511501663623078
432,4,1735.195,1,72,0.27311679605957273,1.170500554541026
433,4,3602.502,1,73,1.170500554541026,0.9754171287841883
434,4,1572.06,1,74,0.0,0.6242669624218805
435,4,2244.141,1,75,0.0,0.2341001109082052
436,4,2891.789,1,76,-1.170500554541026,-0.9754171287841883
437,4,26075.23,-1,77,0.0,-0.2341001109082052
438,4,1549.096,1,78,-1.3655839802978638,-1.170500554541026
439,4,1694.063,1,79,-0.4291835366650429,0.0
440,4,24275.208,1,80,-1.170500554541026,-1.0534504990869233
441,4,28694.544,-1,81,-1.170500554541026,-1.5606674060547012
442,4,9090.346,1,82,0.0,0.31213348121094026
443,4,2248.756,-1,83,1.3655839802978638,1.170500554541026
444,4,6266.904,1,84,0.8973837584814532,1.170500554541026
445,4,2477.286,-1,85,0.3901668515136753,0.0
446,4,3713.833,1,86,0.0,-0.31213348121094026
447,4,3301.402,-1,87,0.5072169069677779,0.0
448,4,4661.243,1,88,0.0,0.3901668515136753
449,4,7973.228,-1,89,0.31213348121094026,0.0
450,4,23899.959,-1,90,0.0,-0.3901668515136753
451,4,9832.332,1,91,0.0,0.5072169069677779
452,4,8348.35,1,92,0.07803337030273506,0.0
453,4,6603.464,1,93,-1.170500554541026,-1.5216507209033339
454,4,1956.746,1,94,0.6242669624218805,1.170500554541026
455,4,7123.875,1,95,0.0,0.19508342575683765
456,4,4671.155,-1,96,-0.7803337030273506,-1.170500554541026
457,4,2589.862,1,97,-1.5216507209033339,-1.170500554541026
458,4,2795.518,-1,98,1.170500554541026,0.6242669624218805
459,4,10457.271,1,99,-0.31213348121094026,0.0
460,4,19451.716,1,100,-1.2095172396923934,-1.170500554541026
461,4,3254.627,1,101,-1.4436173506005987,-1.170500554541026
462,4,3079.733,1,102,-1.1314838693896585,-1.170500554541026
463,4,3459.986,1,103,1.248533924843761,1.170500554541026
464,4,15340.949,1,104,-1.5606674060547012,-1.170500554541026
465,4,19093.958,1,105,-1.170500554541026,-1.1314838693896585
466,4,13427.761,1,106,0.19508342575683765,0.0
467,4,6109.62,1,107,-1.170500554541026,-1.2095172396923934
468,4,8288.198,-1,108,-1.170500554541026,-1.4436173506005987
469,4,1916.633,1,109,0.0,0.07803337030273506
470,4,7507.571999999999,1,110,-1.170500554541026,-0.7803337030273506
471,4,13232.992,-1,111,-1.0534504990869233,-1.170500554541026
472,4,11606.772,-1,112,1.6387007763574364,1.170500554541026
473,4,12451.409,1,113,-0.5072169069677779,0.0
474,4,18886.015,-1,114,0.0,-0.5072169069677779
475,4,1614.061,1,115,-0.3901668515136753,0.0
476,4,7399.05,-1,116,1.170500554541026,1.6387007763574364
477,4,1900.737,1,117,1.170500554541026,1.3655839802978638
478,4,3355.031,1,118,1.170500554541026,1.248533924843761
479,4,3006.93,1,119,1.170500554541026,0.8973837584814532
480,5,2956.698,1,0,1.170500554541026,1.9898509427197442
481,5,3701.877,-1,1,-1.2875506099951286,-1.170500554541026
482,5,3152.05,-1,2,-1.170500554541026,-1.4046006654492311
483,5,3153.11,-1,3,-0.8973837584814532,-1.170500554541026
484,5,2396.847,1,4,-1.4826340357519663,-1.170500554541026
485,5,4489.472,-1,5,1.092467184238291,1.170500554541026
486,5,3855.439,1,6,-0.07803337030273506,0.0
487,5,4038.037,-1,7,1.170500554541026,0.4682002218164104
488,5,4217.473,1,8,-1.170500554541026,-1.248533924843761
489,5,3315.376,-1,9,1.170500554541026,0.8193503881787182
490,5,3757.45,-1,10,-1.3265672951464962,-1.170500554541026
491,5,6773.183000000001,-1,11,0.0,0.1170500554541026
492,5,3177.4640000000004,1,12,-1.170500554541026,-0.9364004436328208
493,5,3303.463,-1,13,-1.170500554541026,-1.2875506099951286
494,5,2960.213,1,14,1.170500554541026,1.7167341466601715
495,5,15960.826,-1,15,0.4291835366650429,0.0
496,5,4419.742,1,16,-0.6242669624218805,0.0
497,5,4347.116,1,17,0.1170500554541026,0.0
498,5,5359.5909999999985,-1,18,0.8193503881787182,1.170500554541026
499,5,2847.962,-1,19,-0.9364004436328208,-1.170500554541026
500,5,3925.857,-1,20,-1.170500554541026,-1.4826340357519663
501,5,5172.947,1,21,1.170500554541026,1.4436173506005987
502,5,5052.259,1,22,-0.1170500554541026,0.0
503,5,5466.552,1,23,0.0,0.4291835366650429
504,5,3752.296,1,24,-1.4046006654492311,-1.170500554541026
505,5,2538.419,1,25,-1.170500554541026,-0.8973837584814532
506,5,3357.547,1,26,-1.170500554541026,-1.3265672951464962
507,5,5031.74,1,27,1.170500554541026,1.092467184238291
508,5,3503.936,-1,28,2.0678843130224793,1.170500554541026
509,5,1993.824,-1,29,1.9898509427197442,1.170500554541026
510,5,2816.126,-1,30,1.7947675169629065,1.170500554541026
511,5,2861.5820000000012,1,31,1.170500554541026,2.0678843130224793
512,5,2965.652,1,32,1.170500554541026,1.7947675169629065
513,5,4486.102,1,33,-1.248533924843761,-1.170500554541026
514,5,2822.192,1,34,0.0,-0.1170500554541026
515,5,8519.964,1,35,1.4436173506005987,1.170500554541026
516,5,4165.882000000001,-1,36,0.0,-0.6242669624218805
517,5,5106.462,-1,37,0.0,-0.07803337030273506
518,5,5412.254,-1,38,1.7167341466601715,1.170500554541026
519,5,2672.4709999999995,1,39,0.4682002218164104,1.170500554541026
520,5,2240.432,-1,40,1.8728008872656416,1.170500554541026
521,5,2874.8390000000004,1,41,-1.170500554541026,-0.8583670733300858
522,5,3298.259,-1,42,-1.0144338139355558,-1.170500554541026
523,5,3386.571,-1,43,0.0,-0.4291835366650429
524,5,5788.203,1,44,0.9754171287841883,1.170500554541026
525,5,3221.33,-1,45,-0.9754171287841883,-1.170500554541026
526,5,4298.562,-1,46,0.6242669624218805,0.0
527,5,5391.25,-1,47,0.0,-0.19508342575683765
528,5,4248.572,1,48,1.170500554541026,1.8728008872656416
529,5,3983.248,1,49,-0.8193503881787182,-1.170500554541026
530,5,4782.524,1,50,1.170500554541026,1.5216507209033339
531,5,2972.602000000001,1,51,-1.092467184238291,-1.170500554541026
532,5,2512.02,-1,52,-0.8583670733300858,-1.170500554541026
533,5,5967.203,-1,53,1.5216507209033339,1.170500554541026
534,5,2562.18,1,54,-0.2341001109082052,0.0
535,5,4803.215,-1,55,0.2341001109082052,0.0
536,5,2434.068,1,56,-0.5462335921191455,0.0
537,5,2408.256,1,57,-1.170500554541026,-0.8193503881787182
538,5,2687.139,1,58,0.5462335921191455,1.170500554541026
539,5,2855.139,-1,59,1.170500554541026,0.27311679605957273
540,5,4525.585999999998,1,60,-0.19508342575683765,0.0
541,5,2420.489,-1,61,-1.170500554541026,-1.3655839802978638
542,5,4451.694,1,62,0.3511501663623078,1.170500554541026
543,5,4451.385,1,63,0.0,0.5462335921191455
544,5,10142.36,1,64,1.170500554541026,0.7023003327246156
545,5,1995.119,-1,65,0.5462335921191455,0.0
546,5,7315.840999999998,-1,66,1.170500554541026,0.5462335921191455
547,5,7825.448,1,67,0.0,-0.5462335921191455
548,5,5077.025,-1,68,-1.170500554541026,-1.0144338139355558
549,5,7236.550999999998,-1,69,0.7023003327246156,1.170500554541026
550,5,4429.96,1,70,-1.170500554541026,-1.092467184238291
551,5,3060.255,-1,71,1.170500554541026,0.3511501663623078
552,5,4307.453,1,72,0.27311679605957273,1.170500554541026
553,5,6352.37,-1,73,1.170500554541026,0.9754171287841883
554,5,3454.677,1,74,0.0,0.6242669624218805
555,5,7417.97,1,75,0.0,0.2341001109082052
556,5,2525.835,1,76,-1.170500554541026,-0.9754171287841883
557,5,3980.034,-1,77,0.0,-0.2341001109082052
558,5,7475.688,1,78,-1.3655839802978638,-1.170500554541026
559,5,3418.941,1,79,-0.4291835366650429,0.0
560,5,10750.35,1,80,-1.170500554541026,-1.0534504990869233
561,5,1967.113,-1,81,-1.170500554541026,-1.5606674060547012
562,5,4202.552,1,82,0.0,0.31213348121094026
563,5,5729.013000000001,1,83,1.3655839802978638,1.170500554541026
564,5,6468.345,1,84,0.8973837584814532,1.170500554541026
565,5,3401.716,-1,85,0.3901668515136753,0.0
566,5,5120.399,-1,86,0.0,-0.31213348121094026
567,5,3429.894,-1,87,0.5072169069677779,0.0
568,5,2685.014,1,88,0.0,0.3901668515136753
569,5,3295.057,-1,89,0.31213348121094026,0.0
570,5,2767.752,-1,90,0.0,-0.3901668515136753
571,5,6210.28,1,91,0.0,0.5072169069677779
572,5,6286.696,1,92,0.07803337030273506,0.0
573,5,2773.192,-1,93,-1.170500554541026,-1.5216507209033339
574,5,5131.492,1,94,0.6242669624218805,1.170500554541026
575,5,5182.951,1,95,0.0,0.19508342575683765
576,5,3509.371,-1,96,-0.7803337030273506,-1.170500554541026
577,5,5524.318,1,97,-1.5216507209033339,-1.170500554541026
578,5,3216.242,-1,98,1.170500554541026,0.6242669624218805
579,5,4535.487,-1,99,-0.31213348121094026,0.0
580,5,3339.644,-1,100,-1.2095172396923934,-1.170500554541026
581,5,3696.722,1,101,-1.4436173506005987,-1.170500554541026
582,5,9921.861,1,102,-1.1314838693896585,-1.170500554541026
583,5,4966.261,-1,103,1.248533924843761,1.170500554541026
584,5,3274.713,1,104,-1.5606674060547012,-1.170500554541026
585,5,3353.705,-1,105,-1.170500554541026,-1.1314838693896585
586,5,2880.162000000001,1,106,0.19508342575683765,0.0
587,5,5744.953,1,107,-1.170500554541026,-1.2095172396923934
588,5,7705.144,-1,108,-1.170500554541026,-1.4436173506005987
589,5,5349.143,-1,109,0.0,0.07803337030273506
590,5,1684.1270000000006,1,110,-1.170500554541026,-0.7803337030273506
591,5,8920.318000000001,1,111,-1.0534504990869233,-1.170500554541026
592,5,3929.479,-1,112,1.6387007763574364,1.170500554541026
593,5,4745.499,1,113,-0.5072169069677779,0.0
594,5,7090.406999999997,1,114,0.0,-0.5072169069677779
595,5,2844.463,1,115,-0.3901668515136753,0.0
596,5,3887.278,1,116,1.170500554541026,1.6387007763574364
597,5,3029.146,1,117,1.170500554541026,1.3655839802978638
598,5,4561.733,1,118,1.170500554541026,1.248533924843761
599,5,3030.526,-1,119,1.170500554541026,0.8973837584814532
600,6,4851.797000000001,1,0,1.170500554541026,1.9898509427197442
601,6,3312.908,1,1,-1.2875506099951286,-1.170500554541026
602,6,4002.002,-1,2,-1.170500554541026,-1.4046006654492311
603,6,3162.02,1,3,-0.8973837584814532,-1.170500554541026
604,6,2004.751,1,4,-1.4826340357519663,-1.170500554541026
605,6,4362.118,1,5,1.092467184238291,1.170500554541026
606,6,3420.4,1,6,-0.07803337030273506,0.0
607,6,2673.063,-1,7,1.170500554541026,0.4682002218164104
608,6,7952.5,1,8,-1.170500554541026,-1.248533924843761
609,6,3058.378,1,9,1.170500554541026,0.8193503881787182
610,6,1738.02,1,10,-1.3265672951464962,-1.170500554541026
611,6,5138.1579999999985,1,11,0.0,0.1170500554541026
612,6,1388.854,1,12,-1.170500554541026,-0.9364004436328208
613,6,6180.061,1,13,-1.170500554541026,-1.2875506099951286
614,6,2672.362,1,14,1.170500554541026,1.7167341466601715
615,6,3024.093,-1,15,0.4291835366650429,0.0
616,6,3066.804,1,16,-0.6242669624218805,0.0
617,6,3916.881,-1,17,0.1170500554541026,0.0
618,6,3402.134,-1,18,0.8193503881787182,1.170500554541026
619,6,3214.156,-1,19,-0.9364004436328208,-1.170500554541026
620,6,2321.735,-1,20,-1.170500554541026,-1.4826340357519663
621,6,5081.537,-1,21,1.170500554541026,1.4436173506005987
622,6,2524.934,-1,22,-0.1170500554541026,0.0
623,6,3137.088,1,23,0.0,0.4291835366650429
624,6,2415.087,1,24,-1.4046006654492311,-1.170500554541026
625,6,3210.695,1,25,-1.170500554541026,-0.8973837584814532
626,6,2546.444,-1,26,-1.170500554541026,-1.3265672951464962
627,6,2899.148,1,27,1.170500554541026,1.092467184238291
628,6,5130.035,-1,28,2.0678843130224793,1.170500554541026
629,6,2914.8,-1,29,1.9898509427197442,1.170500554541026
630,6,4271.251,-1,30,1.7947675169629065,1.170500554541026
631,6,3288.96,1,31,1.170500554541026,2.0678843130224793
632,6,2520.065,-1,32,1.170500554541026,1.7947675169629065
633,6,2498.831,1,33,-1.248533924843761,-1.170500554541026
634,6,4839.608,-1,34,0.0,-0.1170500554541026
635,6,2739.551,-1,35,1.4436173506005987,1.170500554541026
636,6,2809.392000000001,-1,36,0.0,-0.6242669624218805
637,6,3378.269,1,37,0.0,-0.07803337030273506
638,6,2938.868,1,38,1.7167341466601715,1.170500554541026
639,6,2794.449,1,39,0.4682002218164104,1.170500554541026
640,6,1976.739,-1,40,1.8728008872656416,1.170500554541026
641,6,2004.993,1,41,-1.170500554541026,-0.8583670733300858
642,6,4613.913,-1,42,-1.0144338139355558,-1.170500554541026
643,6,1711.7420000000006,1,43,0.0,-0.4291835366650429
644,6,4627.032,1,44,0.9754171287841883,1.170500554541026
645,6,5225.785,-1,45,-0.9754171287841883,-1.170500554541026
646,6,2770.914,-1,46,0.6242669624218805,0.0
647,6,3621.255,1,47,0.0,-0.19508342575683765
648,6,4006.095,1,48,1.170500554541026,1.8728008872656416
649,6,3613.889,-1,49,-0.8193503881787182,-1.170500554541026
650,6,2647.951,-1,50,1.170500554541026,1.5216507209033339
651,6,2386.248,1,51,-1.092467184238291,-1.170500554541026
652,6,5160.542,1,52,-0.8583670733300858,-1.170500554541026
653,6,2065.98,-1,53,1.5216507209033339,1.170500554541026
654,6,2924.2790000000005,-1,54,-0.2341001109082052,0.0
655,6,2003.695,-1,55,0.2341001109082052,0.0
656,6,1363.7910000000004,1,56,-0.5462335921191455,0.0
657,6,2217.916,1,57,-1.170500554541026,-0.8193503881787182
658,6,1400.724,1,58,0.5462335921191455,1.170500554541026
659,6,1797.961,-1,59,1.170500554541026,0.27311679605957273
660,6,2228.883,1,60,-0.19508342575683765,0.0
661,6,3844.088,-1,61,-1.170500554541026,-1.3655839802978638
662,6,3052.768,1,62,0.3511501663623078,1.170500554541026
663,6,2088.88,1,63,0.0,0.5462335921191455
664,6,3037.557,-1,64,1.170500554541026,0.7023003327246156
665,6,2712.239,-1,65,0.5462335921191455,0.0
666,6,1593.224,-1,66,1.170500554541026,0.5462335921191455
667,6,1890.398,-1,67,0.0,-0.5462335921191455
668,6,2797.303,1,68,-1.170500554541026,-1.0144338139355558
669,6,3297.712,-1,69,0.7023003327246156,1.170500554541026
670,6,2174.46,1,70,-1.170500554541026,-1.092467184238291
671,6,1800.0410000000006,-1,71,1.170500554541026,0.3511501663623078
672,6,1699.086,1,72,0.27311679605957273,1.170500554541026
673,6,3231.459000000001,-1,73,1.170500554541026,0.9754171287841883
674,6,2290.637,1,74,0.0,0.6242669624218805
675,6,3646.764,1,75,0.0,0.2341001109082052
676,6,3965.336,1,76,-1.170500554541026,-0.9754171287841883
677,6,3670.988,1,77,0.0,-0.2341001109082052
678,6,1861.353,1,78,-1.3655839802978638,-1.170500554541026
679,6,3099.9709999999995,1,79,-0.4291835366650429,0.0
680,6,2219.093,1,80,-1.170500554541026,-1.0534504990869233
681,6,1555.681,-1,81,-1.170500554541026,-1.5606674060547012
682,6,2286.628,1,82,0.0,0.31213348121094026
683,6,1884.333,-1,83,1.3655839802978638,1.170500554541026
684,6,3377.466,1,84,0.8973837584814532,1.170500554541026
685,6,2420.207000000001,-1,85,0.3901668515136753,0.0
686,6,2573.202,-1,86,0.0,-0.31213348121094026
687,6,1927.552,-1,87,0.5072169069677779,0.0
688,6,1923.274,1,88,0.0,0.3901668515136753
689,6,2021.136,1,89,0.31213348121094026,0.0
690,6,1993.843,-1,90,0.0,-0.3901668515136753
691,6,3532.94,1,91,0.0,0.5072169069677779
692,6,2024.598,-1,92,0.07803337030273506,0.0
693,6,2658.451,-1,93,-1.170500554541026,-1.5216507209033339
694,6,2239.484,1,94,0.6242669624218805,1.170500554541026
695,6,1283.366,1,95,0.0,0.19508342575683765
696,6,4467.623,1,96,-0.7803337030273506,-1.170500554541026
697,6,1179.067,1,97,-1.5216507209033339,-1.170500554541026
698,6,4555.062,1,98,1.170500554541026,0.6242669624218805
699,6,1342.918,1,99,-0.31213348121094026,0.0
700,6,1767.813,1,100,-1.2095172396923934,-1.170500554541026
701,6,2081.146,1,101,-1.4436173506005987,-1.170500554541026
702,6,1579.585,1,102,-1.1314838693896585,-1.170500554541026
703,6,2602.75,1,103,1.248533924843761,1.170500554541026
704,6,1439.3429999999994,1,104,-1.5606674060547012,-1.170500554541026
705,6,1198.59,1,105,-1.170500554541026,-1.1314838693896585
706,6,1701.021,-1,106,0.19508342575683765,0.0
707,6,2031.543,1,107,-1.170500554541026,-1.2095172396923934
708,6,2616.971,-1,108,-1.170500554541026,-1.4436173506005987
709,6,2551.144,-1,109,0.0,0.07803337030273506
710,6,1199.081,1,110,-1.170500554541026,-0.7803337030273506
711,6,3041.209000000001,-1,111,-1.0534504990869233,-1.170500554541026
712,6,3468.601,1,112,1.6387007763574364,1.170500554541026
713,6,1921.719,1,113,-0.5072169069677779,0.0
714,6,2037.211,-1,114,0.0,-0.5072169069677779
715,6,2503.706,1,115,-0.3901668515136753,0.0
716,6,2870.153,1,116,1.170500554541026,1.6387007763574364
717,6,1684.625,1,117,1.170500554541026,1.3655839802978638
718,6,2492.483,1,118,1.170500554541026,1.248533924843761
719,6,5907.275,-1,119,1.170500554541026,0.8973837584814532
720,7,4083.058,1,0,1.170500554541026,1.9898509427197442
721,7,4313.189,1,1,-1.2875506099951286,-1.170500554541026
722,7,11158.922,-1,2,-1.170500554541026,-1.4046006654492311
723,7,5597.954000000002,-1,3,-0.8973837584814532,-1.170500554541026
724,7,1564.9229999999998,1,4,-1.4826340357519663,-1.170500554541026
725,7,15107.624,1,5,1.092467184238291,1.170500554541026
726,7,9450.808,-1,6,-0.07803337030273506,0.0
727,7,4452.746,-1,7,1.170500554541026,0.4682002218164104
728,7,1721.744,1,8,-1.170500554541026,-1.248533924843761
729,7,11827.374,-1,9,1.170500554541026,0.8193503881787182
730,7,3334.369,1,10,-1.3265672951464962,-1.170500554541026
731,7,2647.196,1,11,0.0,0.1170500554541026
732,7,1496.54,1,12,-1.170500554541026,-0.9364004436328208
733,7,5530.4119999999975,-1,13,-1.170500554541026,-1.2875506099951286
734,7,9395.325,-1,14,1.170500554541026,1.7167341466601715
735,7,11928.201,-1,15,0.4291835366650429,0.0
736,7,1513.154,1,16,-0.6242669624218805,0.0
737,7,2556.452,1,17,0.1170500554541026,0.0
738,7,8147.533,1,18,0.8193503881787182,1.170500554541026
739,7,3727.561,-1,19,-0.9364004436328208,-1.170500554541026
740,7,3034.284,1,20,-1.170500554541026,-1.4826340357519663
741,7,8183.8269999999975,1,21,1.170500554541026,1.4436173506005987
742,7,2979.43,1,22,-0.1170500554541026,0.0
743,7,1699.13,1,23,0.0,0.4291835366650429
744,7,2417.411,1,24,-1.4046006654492311,-1.170500554541026
745,7,4118.085,1,25,-1.170500554541026,-0.8973837584814532
746,7,12443.438999999995,1,26,-1.170500554541026,-1.3265672951464962
747,7,3872.137,1,27,1.170500554541026,1.092467184238291
748,7,7794.385,1,28,2.0678843130224793,1.170500554541026
749,7,15631.356000000002,-1,29,1.9898509427197442,1.170500554541026
750,7,15260.773,1,30,1.7947675169629065,1.170500554541026
751,7,3851.631,1,31,1.170500554541026,2.0678843130224793
752,7,3440.122000000001,1,32,1.170500554541026,1.7947675169629065
753,7,2026.291,1,33,-1.248533924843761,-1.170500554541026
754,7,3003.111,1,34,0.0,-0.1170500554541026
755,7,11883.827,-1,35,1.4436173506005987,1.170500554541026
756,7,2465.224,-1,36,0.0,-0.6242669624218805
757,7,4102.412,1,37,0.0,-0.07803337030273506
758,7,5583.2980000000025,-1,38,1.7167341466601715,1.170500554541026
759,7,2509.03,1,39,0.4682002218164104,1.170500554541026
760,7,4146.132000000001,-1,40,1.8728008872656416,1.170500554541026
761,7,5066.16,1,41,-1.170500554541026,-0.8583670733300858
762,7,2065.108,1,42,-1.0144338139355558,-1.170500554541026
763,7,2471.3520000000008,-1,43,0.0,-0.4291835366650429
764,7,14248.641,-1,44,0.9754171287841883,1.170500554541026
765,7,7423.446999999999,-1,45,-0.9754171287841883,-1.170500554541026
766,7,5118.518,1,46,0.6242669624218805,0.0
767,7,7975.717,1,47,0.0,-0.19508342575683765
768,7,12748.498,1,48,1.170500554541026,1.8728008872656416
769,7,1561.601,1,49,-0.8193503881787182,-1.170500554541026
770,7,2412.444,1,50,1.170500554541026,1.5216507209033339
771,7,4049.958,-1,51,-1.092467184238291,-1.170500554541026
772,7,6057.979,-1,52,-0.8583670733300858,-1.170500554541026
773,7,5368.815,1,53,1.5216507209033339,1.170500554541026
774,7,2718.774000000001,1,54,-0.2341001109082052,0.0
775,7,4263.372,1,55,0.2341001109082052,0.0
776,7,1263.261,1,56,-0.5462335921191455,0.0
777,7,1384.323,1,57,-1.170500554541026,-0.8193503881787182
778,7,3093.112,1,58,0.5462335921191455,1.170500554541026
779,7,4106.6579999999985,-1,59,1.170500554541026,0.27311679605957273
780,7,8186.085,1,60,-0.19508342575683765,0.0
781,7,13449.288,1,61,-1.170500554541026,-1.3655839802978638
782,7,3480.991,1,62,0.3511501663623078,1.170500554541026
783,7,3189.641,1,63,0.0,0.5462335921191455
784,7,2569.138,-1,64,1.170500554541026,0.7023003327246156
785,7,13104.227,-1,65,0.5462335921191455,0.0
786,7,2316.53,-1,66,1.170500554541026,0.5462335921191455
787,7,2093.2870000000007,-1,67,0.0,-0.5462335921191455
788,7,4197.348,-1,68,-1.170500554541026,-1.0144338139355558
789,7,1885.133,1,69,0.7023003327246156,1.170500554541026
790,7,2367.676,1,70,-1.170500554541026,-1.092467184238291
791,7,2318.676,-1,71,1.170500554541026,0.3511501663623078
792,7,2718.215,1,72,0.27311679605957273,1.170500554541026
793,7,4299.052,-1,73,1.170500554541026,0.9754171287841883
794,7,4727.753,1,74,0.0,0.6242669624218805
795,7,2908.156,1,75,0.0,0.2341001109082052
796,7,1443.693,1,76,-1.170500554541026,-0.9754171287841883
797,7,2914.18,-1,77,0.0,-0.2341001109082052
798,7,5322.768,1,78,-1.3655839802978638,-1.170500554541026
799,7,2847.647,1,79,-0.4291835366650429,0.0
800,7,4640.823,-1,80,-1.170500554541026,-1.0534504990869233
801,7,6168.6169999999975,-1,81,-1.170500554541026,-1.5606674060547012
802,7,1488.7679999999998,1,82,0.0,0.31213348121094026
803,7,4667.444,1,83,1.3655839802978638,1.170500554541026
804,7,3948.767,1,84,0.8973837584814532,1.170500554541026
805,7,5512.26,-1,85,0.3901668515136753,0.0
806,7,2251.195,1,86,0.0,-0.31213348121094026
807,7,1813.576,-1,87,0.5072169069677779,0.0
808,7,2808.5040000000013,1,88,0.0,0.3901668515136753
809,7,2526.192,1,89,0.31213348121094026,0.0
810,7,2766.042,1,90,0.0,-0.3901668515136753
811,7,1804.396,1,91,0.0,0.5072169069677779
812,7,4606.689,-1,92,0.07803337030273506,0.0
813,7,2456.038,1,93,-1.170500554541026,-1.5216507209033339
814,7,1383.182,1,94,0.6242669624218805,1.170500554541026
815,7,2131.568,1,95,0.0,0.19508342575683765
816,7,12090.306,-1,96,-0.7803337030273506,-1.170500554541026
817,7,3136.882,1,97,-1.5216507209033339,-1.170500554541026
818,7,2550.215,1,98,1.170500554541026,0.6242669624218805
819,7,1454.421,1,99,-0.31213348121094026,0.0
820,7,3341.0820000000012,-1,100,-1.2095172396923934,-1.170500554541026
821,7,1343.957,1,101,-1.4436173506005987,-1.170500554541026
822,7,3425.812,-1,102,-1.1314838693896585,-1.170500554541026
823,7,2157.652,-1,103,1.248533924843761,1.170500554541026
824,7,1216.547,1,104,-1.5606674060547012,-1.170500554541026
825,7,3568.159,-1,105,-1.170500554541026,-1.1314838693896585
826,7,3399.878,-1,106,0.19508342575683765,0.0
827,7,3012.47,1,107,-1.170500554541026,-1.2095172396923934
828,7,2355.175,1,108,-1.170500554541026,-1.4436173506005987
829,7,3481.451,-1,109,0.0,0.07803337030273506
830,7,1541.305,1,110,-1.170500554541026,-0.7803337030273506
831,7,3198.916,-1,111,-1.0534504990869233,-1.170500554541026
832,7,1410.329,1,112,1.6387007763574364,1.170500554541026
833,7,1376.219,1,113,-0.5072169069677779,0.0
834,7,2630.958,-1,114,0.0,-0.5072169069677779
835,7,1467.97,1,115,-0.3901668515136753,0.0
836,7,1521.71,1,116,1.170500554541026,1.6387007763574364
837,7,1211.751,1,117,1.170500554541026,1.3655839802978638
838,7,2661.007,1,118,1.170500554541026,1.248533924843761
839,7,7486.021,-1,119,1.170500554541026,0.8973837584814532
840,8,4993.562,1,0,1.170500554541026,1.9898509427197442
841,8,3795.373,1,1,-1.2875506099951286,-1.170500554541026
842,8,4768.419,1,2,-1.170500554541026,-1.4046006654492311
843,8,7074.001,-1,3,-0.8973837584814532,-1.170500554541026
844,8,7010.269,1,4,-1.4826340357519663,-1.170500554541026
845,8,3297.75,1,5,1.092467184238291,1.170500554541026
846,8,2028.401,-1,6,-0.07803337030273506,0.0
847,8,7001.148,-1,7,1.170500554541026,0.4682002218164104
848,8,1904.903,-1,8,-1.170500554541026,-1.248533924843761
849,8,6137.828,-1,9,1.170500554541026,0.8193503881787182
850,8,1789.591,1,10,-1.3265672951464962,-1.170500554541026
851,8,1607.714,1,11,0.0,0.1170500554541026
852,8,1430.6329999999994,1,12,-1.170500554541026,-0.9364004436328208
853,8,1845.803,-1,13,-1.170500554541026,-1.2875506099951286
854,8,2698.17,-1,14,1.170500554541026,1.7167341466601715
855,8,2192.458,1,15,0.4291835366650429,0.0
856,8,2213.166,1,16,-0.6242669624218805,0.0
857,8,2714.831,-1,17,0.1170500554541026,0.0
858,8,3723.87,-1,18,0.8193503881787182,1.170500554541026
859,8,2246.661,-1,19,-0.9364004436328208,-1.170500554541026
860,8,3688.427,-1,20,-1.170500554541026,-1.4826340357519663
861,8,1567.154,1,21,1.170500554541026,1.4436173506005987
862,8,2141.277,-1,22,-0.1170500554541026,0.0
863,8,2819.997000000001,1,23,0.0,0.4291835366650429
864,8,1751.997,1,24,-1.4046006654492311,-1.170500554541026
865,8,1681.4260000000006,1,25,-1.170500554541026,-0.8973837584814532
866,8,3260.446,1,26,-1.170500554541026,-1.3265672951464962
867,8,2745.432,1,27,1.170500554541026,1.092467184238291
868,8,3064.343,1,28,2.0678843130224793,1.170500554541026
869,8,3042.958,-1,29,1.9898509427197442,1.170500554541026
870,8,2689.534,-1,30,1.7947675169629065,1.170500554541026
871,8,3982.511,1,31,1.170500554541026,2.0678843130224793
872,8,1819.573,1,32,1.170500554541026,1.7947675169629065
873,8,6171.741,1,33,-1.248533924843761,-1.170500554541026
874,8,1524.247,1,34,0.0,-0.1170500554541026
875,8,4600.759,1,35,1.4436173506005987,1.170500554541026
876,8,2025.769,-1,36,0.0,-0.6242669624218805
877,8,1791.142,1,37,0.0,-0.07803337030273506
878,8,2225.989,-1,38,1.7167341466601715,1.170500554541026
879,8,2391.515,-1,39,0.4682002218164104,1.170500554541026
880,8,3815.021,1,40,1.8728008872656416,1.170500554541026
881,8,1408.148,1,41,-1.170500554541026,-0.8583670733300858
882,8,1627.54,1,42,-1.0144338139355558,-1.170500554541026
883,8,2892.416,-1,43,0.0,-0.4291835366650429
884,8,2685.763,1,44,0.9754171287841883,1.170500554541026
885,8,6899.668000000002,-1,45,-0.9754171287841883,-1.170500554541026
886,8,3338.1490000000013,1,46,0.6242669624218805,0.0
887,8,5372.894,-1,47,0.0,-0.19508342575683765
888,8,8255.298,1,48,1.170500554541026,1.8728008872656416
889,8,2263.993,-1,49,-0.8193503881787182,-1.170500554541026
890,8,2397.12,1,50,1.170500554541026,1.5216507209033339
891,8,2290.511,-1,51,-1.092467184238291,-1.170500554541026
892,8,3064.158,-1,52,-0.8583670733300858,-1.170500554541026
893,8,3191.691,1,53,1.5216507209033339,1.170500554541026
894,8,1773.727,1,54,-0.2341001109082052,0.0
895,8,5151.366,-1,55,0.2341001109082052,0.0
896,8,3350.238,1,56,-0.5462335921191455,0.0
897,8,1429.8670000000006,1,57,-1.170500554541026,-0.8193503881787182
898,8,2588.006,1,58,0.5462335921191455,1.170500554541026
899,8,3949.258,1,59,1.170500554541026,0.27311679605957273
900,8,2819.317,-1,60,-0.19508342575683765,0.0
901,8,2724.465,-1,61,-1.170500554541026,-1.3655839802978638
902,8,1768.763,1,62,0.3511501663623078,1.170500554541026
903,8,2662.831,1,63,0.0,0.5462335921191455
904,8,2720.735,-1,64,1.170500554541026,0.7023003327246156
905,8,2168.314,-1,65,0.5462335921191455,0.0
906,8,2177.405,-1,66,1.170500554541026,0.5462335921191455
907,8,2734.053,1,67,0.0,-0.5462335921191455
908,8,7071.145,1,68,-1.170500554541026,-1.0144338139355558
909,8,3290.315,1,69,0.7023003327246156,1.170500554541026
910,8,1529.6629999999998,1,70,-1.170500554541026,-1.092467184238291
911,8,6277.281999999997,-1,71,1.170500554541026,0.3511501663623078
912,8,3580.267000000001,1,72,0.27311679605957273,1.170500554541026
913,8,2067.7270000000008,-1,73,1.170500554541026,0.9754171287841883
914,8,2687.155,1,74,0.0,0.6242669624218805
915,8,2634.212,1,75,0.0,0.2341001109082052
916,8,5321.699000000001,1,76,-1.170500554541026,-0.9754171287841883
917,8,6242.055,-1,77,0.0,-0.2341001109082052
918,8,3841.281,1,78,-1.3655839802978638,-1.170500554541026
919,8,1794.3270000000002,1,79,-0.4291835366650429,0.0
920,8,3558.772,1,80,-1.170500554541026,-1.0534504990869233
921,8,2050.16,-1,81,-1.170500554541026,-1.5606674060547012
922,8,2111.391,1,82,0.0,0.31213348121094026
923,8,1777.964,1,83,1.3655839802978638,1.170500554541026
924,8,2248.647,1,84,0.8973837584814532,1.170500554541026
925,8,1563.1270000000006,-1,85,0.3901668515136753,0.0
926,8,2271.978,1,86,0.0,-0.31213348121094026
927,8,2260.891,1,87,0.5072169069677779,0.0
928,8,1509.5379999999998,1,88,0.0,0.3901668515136753
929,8,4128.835999999998,1,89,0.31213348121094026,0.0
930,8,1242.251,1,90,0.0,-0.3901668515136753
931,8,2094.95,1,91,0.0,0.5072169069677779
932,8,2392.54,1,92,0.07803337030273506,0.0
933,8,2566.652,-1,93,-1.170500554541026,-1.5216507209033339
934,8,1587.263,1,94,0.6242669624218805,1.170500554541026
935,8,1428.436,1,95,0.0,0.19508342575683765
936,8,2804.189000000001,1,96,-0.7803337030273506,-1.170500554541026
937,8,2272.403,-1,97,-1.5216507209033339,-1.170500554541026
938,8,2089.807,-1,98,1.170500554541026,0.6242669624218805
939,8,2406.058,1,99,-0.31213348121094026,0.0
940,8,1395.817,1,100,-1.2095172396923934,-1.170500554541026
941,8,1477.77,1,101,-1.4436173506005987,-1.170500554541026
942,8,1956.009,1,102,-1.1314838693896585,-1.170500554541026
943,8,2400.082000000001,1,103,1.248533924843761,1.170500554541026
944,8,1644.349,1,104,-1.5606674060547012,-1.170500554541026
945,8,2142.379,-1,105,-1.170500554541026,-1.1314838693896585
946,8,2177.221,1,106,0.19508342575683765,0.0
947,8,1539.542,-1,107,-1.170500554541026,-1.2095172396923934
948,8,1636.221,1,108,-1.170500554541026,-1.4436173506005987
949,8,1258.661,1,109,0.0,0.07803337030273506
950,8,1221.12,1,110,-1.170500554541026,-0.7803337030273506
951,8,1365.15,1,111,-1.0534504990869233,-1.170500554541026
952,8,1922.175,-1,112,1.6387007763574364,1.170500554541026
953,8,1437.994,1,113,-0.5072169069677779,0.0
954,8,2292.136,-1,114,0.0,-0.5072169069677779
955,8,2162.836,1,115,-0.3901668515136753,0.0
956,8,1459.06,1,116,1.170500554541026,1.6387007763574364
957,8,2033.541,-1,117,1.170500554541026,1.3655839802978638
958,8,2197.817,1,118,1.170500554541026,1.248533924843761
959,8,3077.0820000000012,-1,119,1.170500554541026,0.8973837584814532
960,9,1737.66,1,0,1.170500554541026,1.9898509427197442
961,9,1700.417,1,1,-1.2875506099951286,-1.170500554541026
962,9,1476.671,-1,2,-1.170500554541026,-1.4046006654492311
963,9,1643.3270000000002,1,3,-0.8973837584814532,-1.170500554541026
964,9,1397.6760000000006,1,4,-1.4826340357519663,-1.170500554541026
965,9,2087.1220000000008,-1,5,1.092467184238291,1.170500554541026
966,9,1959.917,1,6,-0.07803337030273506,0.0
967,9,1866.011,-1,7,1.170500554541026,0.4682002218164104
968,9,2345.818,1,8,-1.170500554541026,-1.248533924843761
969,9,3013.5290000000005,-1,9,1.170500554541026,0.8193503881787182
970,9,1952.562,1,10,-1.3265672951464962,-1.170500554541026
971,9,2152.213,-1,11,0.0,0.1170500554541026
972,9,2567.785,-1,12,-1.170500554541026,-0.9364004436328208
973,9,2959.43,1,13,-1.170500554541026,-1.2875506099951286
974,9,2399.982,1,14,1.170500554541026,1.7167341466601715
975,9,2534.684,-1,15,0.4291835366650429,0.0
976,9,2663.548,1,16,-0.6242669624218805,0.0
977,9,2875.6540000000005,-1,17,0.1170500554541026,0.0
978,9,2027.183,-1,18,0.8193503881787182,1.170500554541026
979,9,2750.827,1,19,-0.9364004436328208,-1.170500554541026
980,9,2205.375,1,20,-1.170500554541026,-1.4826340357519663
981,9,1977.979,1,21,1.170500554541026,1.4436173506005987
982,9,1980.279,-1,22,-0.1170500554541026,0.0
983,9,1653.0770000000002,1,23,0.0,0.4291835366650429
984,9,1485.164,1,24,-1.4046006654492311,-1.170500554541026
985,9,1783.6529999999998,1,25,-1.170500554541026,-0.8973837584814532
986,9,1855.097,-1,26,-1.170500554541026,-1.3265672951464962
987,9,2431.437,1,27,1.170500554541026,1.092467184238291
988,9,2048.157,1,28,2.0678843130224793,1.170500554541026
989,9,1933.937,-1,29,1.9898509427197442,1.170500554541026
990,9,1995.005,-1,30,1.7947675169629065,1.170500554541026
991,9,1805.838,1,31,1.170500554541026,2.0678843130224793
992,9,1846.312,1,32,1.170500554541026,1.7947675169629065
993,9,1751.6529999999998,1,33,-1.248533924843761,-1.170500554541026
994,9,2292.031,-1,34,0.0,-0.1170500554541026
995,9,2356.063,-1,35,1.4436173506005987,1.170500554541026
996,9,1909.306,-1,36,0.0,-0.6242669624218805
997,9,1744.836,1,37,0.0,-0.07803337030273506
998,9,2723.051,-1,38,1.7167341466601715,1.170500554541026
999,9,2331.944,1,39,0.4682002218164104,1.170500554541026
1000,9,1749.954,-1,40,1.8728008872656416,1.170500554541026
1001,9,1325.432,1,41,-1.170500554541026,-0.8583670733300858
1002,9,1223.842,-1,42,-1.0144338139355558,-1.170500554541026
1003,9,1031.857,-1,43,0.0,-0.4291835366650429
1004,9,1167.827,-1,44,0.9754171287841883,1.170500554541026
1005,9,1270.056,1,45,-0.9754171287841883,-1.170500554541026
1006,9,1048.826,-1,46,0.6242669624218805,0.0
1007,9,1234.482,-1,47,0.0,-0.19508342575683765
1008,9,1125.772,1,48,1.170500554541026,1.8728008872656416
1009,9,1120.901,1,49,-0.8193503881787182,-1.170500554541026
1010,9,1388.5870000000002,1,50,1.170500554541026,1.5216507209033339
1011,9,1211.419,1,51,-1.092467184238291,-1.170500554541026
1012,9,1755.945,1,52,-0.8583670733300858,-1.170500554541026
1013,9,1567.646,1,53,1.5216507209033339,1.170500554541026
1014,9,1723.37,-1,54,-0.2341001109082052,0.0
1015,9,1767.759,-1,55,0.2341001109082052,0.0
1016,9,1512.466,1,56,-0.5462335921191455,0.0
1017,9,1487.6629999999998,1,57,-1.170500554541026,-0.8193503881787182
1018,9,1124.705,1,58,0.5462335921191455,1.170500554541026
1019,9,1128.118,-1,59,1.170500554541026,0.27311679605957273
1020,9,1062.346,-1,60,-0.19508342575683765,0.0
1021,9,1247.627,-1,61,-1.170500554541026,-1.3655839802978638
1022,9,1209.127,-1,62,0.3511501663623078,1.170500554541026
1023,9,2503.048,-1,63,0.0,0.5462335921191455
1024,9,2142.45,-1,64,1.170500554541026,0.7023003327246156
1025,9,3268.297,-1,65,0.5462335921191455,0.0
1026,9,1632.447,-1,66,1.170500554541026,0.5462335921191455
1027,9,1724.622,-1,67,0.0,-0.5462335921191455
1028,9,1463.996,1,68,-1.170500554541026,-1.0144338139355558
1029,9,1469.6329999999994,-1,69,0.7023003327246156,1.170500554541026
1030,9,1770.168,1,70,-1.170500554541026,-1.092467184238291
1031,9,1734.9779999999994,-1,71,1.170500554541026,0.3511501663623078
1032,9,1830.813,1,72,0.27311679605957273,1.170500554541026
1033,9,1773.786,-1,73,1.170500554541026,0.9754171287841883
1034,9,1453.213,1,74,0.0,0.6242669624218805
1035,9,1650.519,-1,75,0.0,0.2341001109082052
1036,9,1518.317,1,76,-1.170500554541026,-0.9754171287841883
1037,9,1905.45,-1,77,0.0,-0.2341001109082052
1038,9,1860.143,-1,78,-1.3655839802978638,-1.170500554541026
1039,9,1720.63,-1,79,-0.4291835366650429,0.0
1040,9,1672.766,1,80,-1.170500554541026,-1.0534504990869233
1041,9,1211.748,-1,81,-1.170500554541026,-1.5606674060547012
1042,9,1422.886,1,82,0.0,0.31213348121094026
1043,9,1275.274,-1,83,1.3655839802978638,1.170500554541026
1044,9,1023.782,-1,84,0.8973837584814532,1.170500554541026
1045,9,1566.8429999999994,-1,85,0.3901668515136753,0.0
1046,9,1352.63,-1,86,0.0,-0.31213348121094026
1047,9,1244.595,-1,87,0.5072169069677779,0.0
1048,9,1387.496,1,88,0.0,0.3901668515136753
1049,9,1483.815,-1,89,0.31213348121094026,0.0
1050,9,1461.872,-1,90,0.0,-0.3901668515136753
1051,9,1572.616,1,91,0.0,0.5072169069677779
1052,9,2036.769,1,92,0.07803337030273506,0.0
1053,9,1693.0510000000006,1,93,-1.170500554541026,-1.5216507209033339
1054,9,1715.57,-1,94,0.6242669624218805,1.170500554541026
1055,9,1660.9160000000006,1,95,0.0,0.19508342575683765
1056,9,1437.479,-1,96,-0.7803337030273506,-1.170500554541026
1057,9,1768.642,1,97,-1.5216507209033339,-1.170500554541026
1058,9,1623.335,-1,98,1.170500554541026,0.6242669624218805
1059,9,1826.331,-1,99,-0.31213348121094026,0.0
1060,9,1082.646,1,100,-1.2095172396923934,-1.170500554541026
1061,9,1115.761,1,101,-1.4436173506005987,-1.170500554541026
1062,9,1659.308,-1,102,-1.1314838693896585,-1.170500554541026
1063,9,1612.594,-1,103,1.248533924843761,1.170500554541026
1064,9,2141.188,1,104,-1.5606674060547012,-1.170500554541026
1065,9,1843.804,1,105,-1.170500554541026,-1.1314838693896585
1066,9,3760.222,-1,106,0.19508342575683765,0.0
1067,9,1652.6729999999998,1,107,-1.170500554541026,-1.2095172396923934
1068,9,1279.538,-1,108,-1.170500554541026,-1.4436173506005987
1069,9,1342.9229999999998,1,109,0.0,0.07803337030273506
1070,9,1662.773,-1,110,-1.170500554541026,-0.7803337030273506
1071,9,2508.084,-1,111,-1.0534504990869233,-1.170500554541026
1072,9,3754.656,-1,112,1.6387007763574364,1.170500554541026
1073,9,1307.697,1,113,-0.5072169069677779,0.0
1074,9,1206.212,-1,114,0.0,-0.5072169069677779
1075,9,1185.462,1,115,-0.3901668515136753,0.0
1076,9,1392.939,-1,116,1.170500554541026,1.6387007763574364
1077,9,1522.491,-1,117,1.170500554541026,1.3655839802978638
1078,9,3121.925,-1,118,1.170500554541026,1.248533924843761
1079,9,1837.339,-1,119,1.170500554541026,0.8973837584814532
1080,10,2438.639,1,0,1.170500554541026,1.9898509427197442
1081,10,1326.879,1,1,-1.2875506099951286,-1.170500554541026
1082,10,2008.897,-1,2,-1.170500554541026,-1.4046006654492311
1083,10,3251.427,-1,3,-0.8973837584814532,-1.170500554541026
1084,10,2833.729000000001,1,4,-1.4826340357519663,-1.170500554541026
1085,10,1694.866,-1,5,1.092467184238291,1.170500554541026
1086,10,1296.653,-1,6,-0.07803337030273506,0.0
1087,10,1529.774,-1,7,1.170500554541026,0.4682002218164104
1088,10,1082.362,1,8,-1.170500554541026,-1.248533924843761
1089,10,3108.467,-1,9,1.170500554541026,0.8193503881787182
1090,10,4797.563,1,10,-1.3265672951464962,-1.170500554541026
1091,10,3431.0240000000013,-1,11,0.0,0.1170500554541026
1092,10,1124.577,1,12,-1.170500554541026,-0.9364004436328208
1093,10,4441.4540000000015,-1,13,-1.170500554541026,-1.2875506099951286
1094,10,4632.202,1,14,1.170500554541026,1.7167341466601715
1095,10,1632.6129999999994,-1,15,0.4291835366650429,0.0
1096,10,4819.272,1,16,-0.6242669624218805,0.0
1097,10,3039.931,-1,17,0.1170500554541026,0.0
1098,10,3590.0440000000012,1,18,0.8193503881787182,1.170500554541026
1099,10,2701.356,1,19,-0.9364004436328208,-1.170500554541026
1100,10,1980.89,-1,20,-1.170500554541026,-1.4826340357519663
1101,10,4704.146,1,21,1.170500554541026,1.4436173506005987
1102,10,2282.415,1,22,-0.1170500554541026,0.0
1103,10,2126.651,1,23,0.0,0.4291835366650429
1104,10,2219.879,1,24,-1.4046006654492311,-1.170500554541026
1105,10,1361.906,1,25,-1.170500554541026,-0.8973837584814532
1106,10,1211.06,1,26,-1.170500554541026,-1.3265672951464962
1107,10,5025.44,-1,27,1.170500554541026,1.092467184238291
1108,10,1668.819,-1,28,2.0678843130224793,1.170500554541026
1109,10,1902.992,-1,29,1.9898509427197442,1.170500554541026
1110,10,2614.701,-1,30,1.7947675169629065,1.170500554541026
1111,10,2018.169,1,31,1.170500554541026,2.0678843130224793
1112,10,3067.38,1,32,1.170500554541026,1.7947675169629065
1113,10,2779.135,1,33,-1.248533924843761,-1.170500554541026
1114,10,2203.819,1,34,0.0,-0.1170500554541026
1115,10,1712.826,-1,35,1.4436173506005987,1.170500554541026
1116,10,1686.734,-1,36,0.0,-0.6242669624218805
1117,10,1807.809,-1,37,0.0,-0.07803337030273506
1118,10,1473.981,-1,38,1.7167341466601715,1.170500554541026
1119,10,2004.33,1,39,0.4682002218164104,1.170500554541026
1120,10,1421.8570000000002,-1,40,1.8728008872656416,1.170500554541026
1121,10,2683.921,1,41,-1.170500554541026,-0.8583670733300858
1122,10,2971.482,-1,42,-1.0144338139355558,-1.170500554541026
1123,10,3289.845,-1,43,0.0,-0.4291835366650429
1124,10,1787.366,-1,44,0.9754171287841883,1.170500554541026
1125,10,1495.821,-1,45,-0.9754171287841883,-1.170500554541026
1126,10,1312.34,-1,46,0.6242669624218805,0.0
1127,10,1617.595,-1,47,0.0,-0.19508342575683765
1128,10,2641.421,1,48,1.170500554541026,1.8728008872656416
1129,10,3239.75,-1,49,-0.8193503881787182,-1.170500554541026
1130,10,4830.474,1,50,1.170500554541026,1.5216507209033339
1131,10,5707.6309999999985,-1,51,-1.092467184238291,-1.170500554541026
1132,10,3165.677,-1,52,-0.8583670733300858,-1.170500554541026
1133,10,1835.798,-1,53,1.5216507209033339,1.170500554541026
1134,10,2513.012,1,54,-0.2341001109082052,0.0
1135,10,1628.7179999999994,-1,55,0.2341001109082052,0.0
1136,10,2175.323,1,56,-0.5462335921191455,0.0
1137,10,2798.844,1,57,-1.170500554541026,-0.8193503881787182
1138,10,1538.526,-1,58,0.5462335921191455,1.170500554541026
1139,10,1389.557,-1,59,1.170500554541026,0.27311679605957273
1140,10,1704.155,1,60,-0.19508342575683765,0.0
1141,10,2217.502,1,61,-1.170500554541026,-1.3655839802978638
1142,10,5787.017,1,62,0.3511501663623078,1.170500554541026
1143,10,2518.364,1,63,0.0,0.5462335921191455
1144,10,4822.179,-1,64,1.170500554541026,0.7023003327246156
1145,10,2906.668,-1,65,0.5462335921191455,0.0
1146,10,1577.21,-1,66,1.170500554541026,0.5462335921191455
1147,10,2177.234,-1,67,0.0,-0.5462335921191455
1148,10,1134.675,1,68,-1.170500554541026,-1.0144338139355558
1149,10,2555.015,1,69,0.7023003327246156,1.170500554541026
1150,10,3902.862,1,70,-1.170500554541026,-1.092467184238291
1151,10,2540.732,-1,71,1.170500554541026,0.3511501663623078
1152,10,3994.772,1,72,0.27311679605957273,1.170500554541026
1153,10,6138.929,1,73,1.170500554541026,0.9754171287841883
1154,10,1443.82,-1,74,0.0,0.6242669624218805
1155,10,7491.703,-1,75,0.0,0.2341001109082052
1156,10,2171.036,1,76,-1.170500554541026,-0.9754171287841883
1157,10,5706.276999999999,1,77,0.0,-0.2341001109082052
1158,10,3753.437,1,78,-1.3655839802978638,-1.170500554541026
1159,10,1171.933,1,79,-0.4291835366650429,0.0
1160,10,1227.903,1,80,-1.170500554541026,-1.0534504990869233
1161,10,2017.013,-1,81,-1.170500554541026,-1.5606674060547012
1162,10,2611.379,1,82,0.0,0.31213348121094026
1163,10,2512.763,1,83,1.3655839802978638,1.170500554541026
1164,10,1766.796,1,84,0.8973837584814532,1.170500554541026
1165,10,1995.841,-1,85,0.3901668515136753,0.0
1166,10,1143.188,-1,86,0.0,-0.31213348121094026
1167,10,1491.604,1,87,0.5072169069677779,0.0
1168,10,2656.389,1,88,0.0,0.3901668515136753
1169,10,1688.155,-1,89,0.31213348121094026,0.0
1170,10,1190.659,-1,90,0.0,-0.3901668515136753
1171,10,2803.53,1,91,0.0,0.5072169069677779
1172,10,2437.721,1,92,0.07803337030273506,0.0
1173,10,3223.498,-1,93,-1.170500554541026,-1.5216507209033339
1174,10,2559.688,1,94,0.6242669624218805,1.170500554541026
1175,10,3473.292,1,95,0.0,0.19508342575683765
1176,10,2095.43,-1,96,-0.7803337030273506,-1.170500554541026
1177,10,3955.994,-1,97,-1.5216507209033339,-1.170500554541026
1178,10,3932.331,1,98,1.170500554541026,0.6242669624218805
1179,10,1386.995,1,99,-0.31213348121094026,0.0
1180,10,2313.741,-1,100,-1.2095172396923934,-1.170500554541026
1181,10,3087.358,1,101,-1.4436173506005987,-1.170500554541026
1182,10,2405.645,-1,102,-1.1314838693896585,-1.170500554541026
1183,10,5096.262,1,103,1.248533924843761,1.170500554541026
1184,10,4183.426,1,104,-1.5606674060547012,-1.170500554541026
1185,10,1491.33,-1,105,-1.170500554541026,-1.1314838693896585
1186,10,1781.244,-1,106,0.19508342575683765,0.0
1187,10,11001.154,1,107,-1.170500554541026,-1.2095172396923934
1188,10,5732.735,-1,108,-1.170500554541026,-1.4436173506005987
1189,10,4565.044,-1,109,0.0,0.07803337030273506
1190,10,1287.406,1,110,-1.170500554541026,-0.7803337030273506
1191,10,1760.896,-1,111,-1.0534504990869233,-1.170500554541026
1192,10,6325.959,-1,112,1.6387007763574364,1.170500554541026
1193,10,3826.767,1,113,-0.5072169069677779,0.0
1194,10,2005.404,-1,114,0.0,-0.5072169069677779
1195,10,1723.4920000000006,1,115,-0.3901668515136753,0.0
1196,10,3657.047,1,116,1.170500554541026,1.6387007763574364
1197,10,8016.802,-1,117,1.170500554541026,1.3655839802978638
1198,10,2172.586,-1,118,1.170500554541026,1.248533924843761
1199,10,1299.215,-1,119,1.170500554541026,0.8973837584814532
1200,11,8564.741,1,0,1.170500554541026,1.9898509427197442
1201,11,13211.21,-1,1,-1.2875506099951286,-1.170500554541026
1202,11,3541.179,1,2,-1.170500554541026,-1.4046006654492311
1203,11,3412.393,-1,3,-0.8973837584814532,-1.170500554541026
1204,11,4174.505,1,4,-1.4826340357519663,-1.170500554541026
1205,11,7675.66,1,5,1.092467184238291,1.170500554541026
1206,11,14244.499,-1,6,-0.07803337030273506,0.0
1207,11,5214.058,-1,7,1.170500554541026,0.4682002218164104
1208,11,6897.868,-1,8,-1.170500554541026,-1.248533924843761
1209,11,1021.941,-1,9,1.170500554541026,0.8193503881787182
1210,11,13861.923,-1,10,-1.3265672951464962,-1.170500554541026
1211,11,4414.5459999999985,1,11,0.0,0.1170500554541026
1212,11,13654.764,1,12,-1.170500554541026,-0.9364004436328208
1213,11,3961.79,1,13,-1.170500554541026,-1.2875506099951286
1214,11,3624.73,1,14,1.170500554541026,1.7167341466601715
1215,11,18057.753,-1,15,0.4291835366650429,0.0
1216,11,2921.995,1,16,-0.6242669624218805,0.0
1217,11,9394.374,-1,17,0.1170500554541026,0.0
1218,11,12000.368,1,18,0.8193503881787182,1.170500554541026
1219,11,5792.8830000000025,1,19,-0.9364004436328208,-1.170500554541026
1220,11,11095.371,1,20,-1.170500554541026,-1.4826340357519663
1221,11,4784.801,-1,21,1.170500554541026,1.4436173506005987
1222,11,1362.3629999999996,1,22,-0.1170500554541026,0.0
1223,11,7178.638000000001,1,23,0.0,0.4291835366650429
1224,11,6065.669,-1,24,-1.4046006654492311,-1.170500554541026
1225,11,8251.75,1,25,-1.170500554541026,-0.8973837584814532
1226,11,2260.1910000000007,1,26,-1.170500554541026,-1.3265672951464962
1227,11,5917.833000000001,1,27,1.170500554541026,1.092467184238291
1228,11,3524.994,-1,28,2.0678843130224793,1.170500554541026
1229,11,16783.433,-1,29,1.9898509427197442,1.170500554541026
1230,11,10903.898,1,30,1.7947675169629065,1.170500554541026
1231,11,3587.717,1,31,1.170500554541026,2.0678843130224793
1232,11,7358.151999999999,1,32,1.170500554541026,1.7947675169629065
1233,11,9287.089,-1,33,-1.248533924843761,-1.170500554541026
1234,11,8693.901,-1,34,0.0,-0.1170500554541026
1235,11,4052.565,-1,35,1.4436173506005987,1.170500554541026
1236,11,6860.493,-1,36,0.0,-0.6242669624218805
1237,11,9173.561,-1,37,0.0,-0.07803337030273506
1238,11,15333.791,-1,38,1.7167341466601715,1.170500554541026
1239,11,17237.613,1,39,0.4682002218164104,1.170500554541026
1240,11,4100.337,-1,40,1.8728008872656416,1.170500554541026
1241,11,4154.866,1,41,-1.170500554541026,-0.8583670733300858
1242,11,3758.666,-1,42,-1.0144338139355558,-1.170500554541026
1243,11,7170.361999999999,-1,43,0.0,-0.4291835366650429
1244,11,13068.882,1,44,0.9754171287841883,1.170500554541026
1245,11,7234.331999999998,1,45,-0.9754171287841883,-1.170500554541026
1246,11,3331.992,-1,46,0.6242669624218805,0.0
1247,11,9521.081,-1,47,0.0,-0.19508342575683765
1248,11,5705.359,1,48,1.170500554541026,1.8728008872656416
1249,11,3063.55,-1,49,-0.8193503881787182,-1.170500554541026
1250,11,2528.952,1,50,1.170500554541026,1.5216507209033339
1251,11,4839.29,1,51,-1.092467184238291,-1.170500554541026
1252,11,3404.93,-1,52,-0.8583670733300858,-1.170500554541026
1253,11,4739.4079999999985,-1,53,1.5216507209033339,1.170500554541026
1254,11,4685.584,1,54,-0.2341001109082052,0.0
1255,11,3521.992,-1,55,0.2341001109082052,0.0
1256,11,5351.809,-1,56,-0.5462335921191455,0.0
1257,11,4520.589,1,57,-1.170500554541026,-0.8193503881787182
1258,11,3687.303,1,58,0.5462335921191455,1.170500554541026
1259,11,7342.482,-1,59,1.170500554541026,0.27311679605957273
1260,11,4831.263,1,60,-0.19508342575683765,0.0
1261,11,11852.555,1,61,-1.170500554541026,-1.3655839802978638
1262,11,14659.758,1,62,0.3511501663623078,1.170500554541026
1263,11,3897.805,1,63,0.0,0.5462335921191455
1264,11,3527.564000000001,1,64,1.170500554541026,0.7023003327246156
1265,11,2773.033,-1,65,0.5462335921191455,0.0
1266,11,2300.7,-1,66,1.170500554541026,0.5462335921191455
1267,11,14388.758,-1,67,0.0,-0.5462335921191455
1268,11,2212.062,1,68,-1.170500554541026,-1.0144338139355558
1269,11,2736.71,1,69,0.7023003327246156,1.170500554541026
1270,11,23605.39,1,70,-1.170500554541026,-1.092467184238291
1271,11,2208.33,-1,71,1.170500554541026,0.3511501663623078
1272,11,3031.786,1,72,0.27311679605957273,1.170500554541026
1273,11,2181.58,-1,73,1.170500554541026,0.9754171287841883
1274,11,2422.26,1,74,0.0,0.6242669624218805
1275,11,5657.024,-1,75,0.0,0.2341001109082052
1276,11,1928.941,1,76,-1.170500554541026,-0.9754171287841883
1277,11,5892.906,1,77,0.0,-0.2341001109082052
1278,11,3976.784,1,78,-1.3655839802978638,-1.170500554541026
1279,11,2766.983,1,79,-0.4291835366650429,0.0
1280,11,2360.284,1,80,-1.170500554541026,-1.0534504990869233
1281,11,5328.319,1,81,-1.170500554541026,-1.5606674060547012
1282,11,2798.265,1,82,0.0,0.31213348121094026
1283,11,16547.093,-1,83,1.3655839802978638,1.170500554541026
1284,11,3215.762,-1,84,0.8973837584814532,1.170500554541026
1285,11,4805.152,-1,85,0.3901668515136753,0.0
1286,11,3876.601,1,86,0.0,-0.31213348121094026
1287,11,3662.945,1,87,0.5072169069677779,0.0
1288,11,7214.56,1,88,0.0,0.3901668515136753
1289,11,2799.691,-1,89,0.31213348121094026,0.0
1290,11,3203.563,-1,90,0.0,-0.3901668515136753
1291,11,2004.114,1,91,0.0,0.5072169069677779
1292,11,6071.469,-1,92,0.07803337030273506,0.0
1293,11,1447.59,1,93,-1.170500554541026,-1.5216507209033339
1294,11,2234.9210000000007,1,94,0.6242669624218805,1.170500554541026
1295,11,3708.76,1,95,0.0,0.19508342575683765
1296,11,3523.153,-1,96,-0.7803337030273506,-1.170500554541026
1297,11,7845.473000000001,-1,97,-1.5216507209033339,-1.170500554541026
1298,11,5287.708000000001,-1,98,1.170500554541026,0.6242669624218805
1299,11,1772.283,1,99,-0.31213348121094026,0.0
1300,11,2435.127,-1,100,-1.2095172396923934,-1.170500554541026
1301,11,1368.463,1,101,-1.4436173506005987,-1.170500554541026
1302,11,2530.144,-1,102,-1.1314838693896585,-1.170500554541026
1303,11,5170.237,-1,103,1.248533924843761,1.170500554541026
1304,11,14426.898,-1,104,-1.5606674060547012,-1.170500554541026
1305,11,10303.299,1,105,-1.170500554541026,-1.1314838693896585
1306,11,5913.5,1,106,0.19508342575683765,0.0
1307,11,8980.201,-1,107,-1.170500554541026,-1.2095172396923934
1308,11,2652.93,1,108,-1.170500554541026,-1.4436173506005987
1309,11,3262.577,1,109,0.0,0.07803337030273506
1310,11,9705.507,1,110,-1.170500554541026,-0.7803337030273506
1311,11,4653.63,1,111,-1.0534504990869233,-1.170500554541026
1312,11,2075.242,-1,112,1.6387007763574364,1.170500554541026
1313,11,1184.873,1,113,-0.5072169069677779,0.0
1314,11,10564.16,1,114,0.0,-0.5072169069677779
1315,11,1824.847,1,115,-0.3901668515136753,0.0
1316,11,2398.761,-1,116,1.170500554541026,1.6387007763574364
1317,11,4017.863,-1,117,1.170500554541026,1.3655839802978638
1318,11,2069.535,-1,118,1.170500554541026,1.248533924843761
1319,11,6801.251,1,119,1.170500554541026,0.8973837584814532
1320,12,5012.3809999999985,1,0,1.170500554541026,1.9898509427197442
1321,12,4646.738,1,1,-1.2875506099951286,-1.170500554541026
1322,12,4092.891,1,2,-1.170500554541026,-1.4046006654492311
1323,12,2190.67,1,3,-0.8973837584814532,-1.170500554541026
1324,12,5622.538000000001,1,4,-1.4826340357519663,-1.170500554541026
1325,12,2724.52,-1,5,1.092467184238291,1.170500554541026
1326,12,2449.388,1,6,-0.07803337030273506,0.0
1327,12,1639.989,-1,7,1.170500554541026,0.4682002218164104
1328,12,3432.606,-1,8,-1.170500554541026,-1.248533924843761
1329,12,2934.281,-1,9,1.170500554541026,0.8193503881787182
1330,12,1190.89,1,10,-1.3265672951464962,-1.170500554541026
1331,12,1767.183,1,11,0.0,0.1170500554541026
1332,12,1294.651,1,12,-1.170500554541026,-0.9364004436328208
1333,12,2238.074,-1,13,-1.170500554541026,-1.2875506099951286
1334,12,6584.98,-1,14,1.170500554541026,1.7167341466601715
1335,12,1428.599,1,15,0.4291835366650429,0.0
1336,12,1490.428,1,16,-0.6242669624218805,0.0
1337,12,2125.862,1,17,0.1170500554541026,0.0
1338,12,1668.862,1,18,0.8193503881787182,1.170500554541026
1339,12,3030.588,-1,19,-0.9364004436328208,-1.170500554541026
1340,12,4424.91,-1,20,-1.170500554541026,-1.4826340357519663
1341,12,2969.178,1,21,1.170500554541026,1.4436173506005987
1342,12,1303.4489999999996,1,22,-0.1170500554541026,0.0
1343,12,1357.856,1,23,0.0,0.4291835366650429
1344,12,2354.092,1,24,-1.4046006654492311,-1.170500554541026
1345,12,2004.533,1,25,-1.170500554541026,-0.8973837584814532
1346,12,3356.951,-1,26,-1.170500554541026,-1.3265672951464962
1347,12,1521.511,1,27,1.170500554541026,1.092467184238291
1348,12,1888.712,1,28,2.0678843130224793,1.170500554541026
1349,12,3473.523,-1,29,1.9898509427197442,1.170500554541026
1350,12,1729.091,1,30,1.7947675169629065,1.170500554541026
1351,12,2395.127,1,31,1.170500554541026,2.0678843130224793
1352,12,1582.4129999999998,1,32,1.170500554541026,1.7947675169629065
1353,12,3903.343,1,33,-1.248533924843761,-1.170500554541026
1354,12,2663.144,-1,34,0.0,-0.1170500554541026
1355,12,1934.49,1,35,1.4436173506005987,1.170500554541026
1356,12,2405.19,-1,36,0.0,-0.6242669624218805
1357,12,1545.105,1,37,0.0,-0.07803337030273506
1358,12,2604.714,-1,38,1.7167341466601715,1.170500554541026
1359,12,1120.327,1,39,0.4682002218164104,1.170500554541026
1360,12,2319.583,-1,40,1.8728008872656416,1.170500554541026
1361,12,2658.008,1,41,-1.170500554541026,-0.8583670733300858
1362,12,4644.769,-1,42,-1.0144338139355558,-1.170500554541026
1363,12,2336.904,-1,43,0.0,-0.4291835366650429
1364,12,2232.262,1,44,0.9754171287841883,1.170500554541026
1365,12,2404.233,-1,45,-0.9754171287841883,-1.170500554541026
1366,12,3773.941,-1,46,0.6242669624218805,0.0
1367,12,1389.338,-1,47,0.0,-0.19508342575683765
1368,12,1345.217,1,48,1.170500554541026,1.8728008872656416
1369,12,2517.299,-1,49,-0.8193503881787182,-1.170500554541026
1370,12,1667.654,1,50,1.170500554541026,1.5216507209033339
1371,12,2896.692,-1,51,-1.092467184238291,-1.170500554541026
1372,12,1162.424,1,52,-0.8583670733300858,-1.170500554541026
1373,12,1708.8370000000002,-1,53,1.5216507209033339,1.170500554541026
1374,12,1290.039,1,54,-0.2341001109082052,0.0
1375,12,1770.544,1,55,0.2341001109082052,0.0
1376,12,1432.934,1,56,-0.5462335921191455,0.0
1377,12,3000.278,1,57,-1.170500554541026,-0.8193503881787182
1378,12,1799.973,1,58,0.5462335921191455,1.170500554541026
1379,12,1775.2,-1,59,1.170500554541026,0.27311679605957273
1380,12,1256.005,1,60,-0.19508342575683765,0.0
1381,12,3209.321,-1,61,-1.170500554541026,-1.3655839802978638
1382,12,1909.739,1,62,0.3511501663623078,1.170500554541026
1383,12,1389.695,1,63,0.0,0.5462335921191455
1384,12,1464.614,1,64,1.170500554541026,0.7023003327246156
1385,12,2393.765,1,65,0.5462335921191455,0.0
1386,12,1465.825,1,66,1.170500554541026,0.5462335921191455
1387,12,1234.519,1,67,0.0,-0.5462335921191455
1388,12,2530.536,1,68,-1.170500554541026,-1.0144338139355558
1389,12,1402.307,1,69,0.7023003327246156,1.170500554541026
1390,12,1189.071,1,70,-1.170500554541026,-1.092467184238291
1391,12,2251.736,-1,71,1.170500554541026,0.3511501663623078
1392,12,1241.553,1,72,0.27311679605957273,1.170500554541026
1393,12,1491.138,1,73,1.170500554541026,0.9754171287841883
1394,12,1117.673,1,74,0.0,0.6242669624218805
1395,12,1573.281,1,75,0.0,0.2341001109082052
1396,12,4591.682,1,76,-1.170500554541026,-0.9754171287841883
1397,12,1523.109,1,77,0.0,-0.2341001109082052
1398,12,1425.348,1,78,-1.3655839802978638,-1.170500554541026
1399,12,1289.357,1,79,-0.4291835366650429,0.0
1400,12,1246.182,-1,80,-1.170500554541026,-1.0534504990869233
1401,12,2715.792,1,81,-1.170500554541026,-1.5606674060547012
1402,12,1603.725,1,82,0.0,0.31213348121094026
1403,12,3490.857,1,83,1.3655839802978638,1.170500554541026
1404,12,2474.318,1,84,0.8973837584814532,1.170500554541026
1405,12,3312.936,-1,85,0.3901668515136753,0.0
1406,12,2107.919,1,86,0.0,-0.31213348121094026
1407,12,1611.534,-1,87,0.5072169069677779,0.0
1408,12,1120.909,1,88,0.0,0.3901668515136753
1409,12,1756.3470000000002,-1,89,0.31213348121094026,0.0
1410,12,1201.742,1,90,0.0,-0.3901668515136753
1411,12,1355.249,1,91,0.0,0.5072169069677779
1412,12,1976.005,1,92,0.07803337030273506,0.0
1413,12,3158.077,-1,93,-1.170500554541026,-1.5216507209033339
1414,12,1300.309,1,94,0.6242669624218805,1.170500554541026
1415,12,1160.845,1,95,0.0,0.19508342575683765
1416,12,1980.262,-1,96,-0.7803337030273506,-1.170500554541026
1417,12,1208.765,1,97,-1.5216507209033339,-1.170500554541026
1418,12,1475.131,-1,98,1.170500554541026,0.6242669624218805
1419,12,1204.252,1,99,-0.31213348121094026,0.0
1420,12,1540.564,-1,100,-1.2095172396923934,-1.170500554541026
1421,12,2375.858,1,101,-1.4436173506005987,-1.170500554541026
1422,12,3069.247000000001,1,102,-1.1314838693896585,-1.170500554541026
1423,12,3198.568,1,103,1.248533924843761,1.170500554541026
1424,12,1931.763,1,104,-1.5606674060547012,-1.170500554541026
1425,12,1189.781,1,105,-1.170500554541026,-1.1314838693896585
1426,12,3198.531,-1,106,0.19508342575683765,0.0
1427,12,1332.856,1,107,-1.170500554541026,-1.2095172396923934
1428,12,2105.839,1,108,-1.170500554541026,-1.4436173506005987
1429,12,2128.659,1,109,0.0,0.07803337030273506
1430,12,1234.054,1,110,-1.170500554541026,-0.7803337030273506
1431,12,1231.836,1,111,-1.0534504990869233,-1.170500554541026
1432,12,2939.993,1,112,1.6387007763574364,1.170500554541026
1433,12,1417.895,1,113,-0.5072169069677779,0.0
1434,12,1590.047,1,114,0.0,-0.5072169069677779
1435,12,1628.809,1,115,-0.3901668515136753,0.0
1436,12,1363.523,1,116,1.170500554541026,1.6387007763574364
1437,12,1978.787,1,117,1.170500554541026,1.3655839802978638
1438,12,1261.728,1,118,1.170500554541026,1.248533924843761
1439,12,2846.988,-1,119,1.170500554541026,0.8973837584814532
1440,13,4728.5340000000015,1,0,1.170500554541026,1.9898509427197442
1441,13,4777.03,1,1,-1.2875506099951286,-1.170500554541026
1442,13,5237.59,-1,2,-1.170500554541026,-1.4046006654492311
1443,13,4732.615,-1,3,-0.8973837584814532,-1.170500554541026
1444,13,5130.834,1,4,-1.4826340357519663,-1.170500554541026
1445,13,4248.016,-1,5,1.092467184238291,1.170500554541026
1446,13,4516.884,1,6,-0.07803337030273506,0.0
1447,13,4790.279,-1,7,1.170500554541026,0.4682002218164104
1448,13,3812.761,1,8,-1.170500554541026,-1.248533924843761
1449,13,4843.772,1,9,1.170500554541026,0.8193503881787182
1450,13,5095.775,-1,10,-1.3265672951464962,-1.170500554541026
1451,13,4325.052,1,11,0.0,0.1170500554541026
1452,13,4924.589,1,12,-1.170500554541026,-0.9364004436328208
1453,13,4976.991,1,13,-1.170500554541026,-1.2875506099951286
1454,13,5782.88,1,14,1.170500554541026,1.7167341466601715
1455,13,6755.802,1,15,0.4291835366650429,0.0
1456,13,5654.201,1,16,-0.6242669624218805,0.0
1457,13,5400.0340000000015,1,17,0.1170500554541026,0.0
1458,13,4913.412,1,18,0.8193503881787182,1.170500554541026
1459,13,6080.446,1,19,-0.9364004436328208,-1.170500554541026
1460,13,6902.097,-1,20,-1.170500554541026,-1.4826340357519663
1461,13,6638.75,-1,21,1.170500554541026,1.4436173506005987
1462,13,5702.751,-1,22,-0.1170500554541026,0.0
1463,13,3842.298,1,23,0.0,0.4291835366650429
1464,13,5351.669,1,24,-1.4046006654492311,-1.170500554541026
1465,13,6971.184,-1,25,-1.170500554541026,-0.8973837584814532
1466,13,5742.0769999999975,-1,26,-1.170500554541026,-1.3265672951464962
1467,13,4953.392,1,27,1.170500554541026,1.092467184238291
1468,13,5710.593000000003,-1,28,2.0678843130224793,1.170500554541026
1469,13,5005.606,-1,29,1.9898509427197442,1.170500554541026
1470,13,4991.3,1,30,1.7947675169629065,1.170500554541026
1471,13,4425.7559999999985,1,31,1.170500554541026,2.0678843130224793
1472,13,3912.845,1,32,1.170500554541026,1.7947675169629065
1473,13,5197.845,1,33,-1.248533924843761,-1.170500554541026
1474,13,4044.83,1,34,0.0,-0.1170500554541026
1475,13,6092.637,-1,35,1.4436173506005987,1.170500554541026
1476,13,4904.838,-1,36,0.0,-0.6242669624218805
1477,13,5516.299,1,37,0.0,-0.07803337030273506
1478,13,6759.424,-1,38,1.7167341466601715,1.170500554541026
1479,13,3572.406,1,39,0.4682002218164104,1.170500554541026
1480,13,5230.636,-1,40,1.8728008872656416,1.170500554541026
1481,13,5874.714,1,41,-1.170500554541026,-0.8583670733300858
1482,13,3882.513,-1,42,-1.0144338139355558,-1.170500554541026
1483,13,5160.128,1,43,0.0,-0.4291835366650429
1484,13,5214.65,1,44,0.9754171287841883,1.170500554541026
1485,13,6416.168000000002,1,45,-0.9754171287841883,-1.170500554541026
1486,13,5839.816,-1,46,0.6242669624218805,0.0
1487,13,5462.825,-1,47,0.0,-0.19508342575683765
1488,13,5443.724,1,48,1.170500554541026,1.8728008872656416
1489,13,4849.737,-1,49,-0.8193503881787182,-1.170500554541026
1490,13,6404.263000000001,1,50,1.170500554541026,1.5216507209033339
1491,13,4603.016,1,51,-1.092467184238291,-1.170500554541026
1492,13,5106.066,-1,52,-0.8583670733300858,-1.170500554541026
1493,13,6099.7019999999975,1,53,1.5216507209033339,1.170500554541026
1494,13,5255.903,1,54,-0.2341001109082052,0.0
1495,13,5245.326,1,55,0.2341001109082052,0.0
1496,13,5599.875,1,56,-0.5462335921191455,0.0
1497,13,5294.956,1,57,-1.170500554541026,-0.8193503881787182
1498,13,5642.69,1,58,0.5462335921191455,1.170500554541026
1499,13,4226.286,-1,59,1.170500554541026,0.27311679605957273
1500,13,5756.5459999999985,1,60,-0.19508342575683765,0.0
1501,13,4965.766,-1,61,-1.170500554541026,-1.3655839802978638
1502,13,7015.627,1,62,0.3511501663623078,1.170500554541026
1503,13,5160.893,1,63,0.0,0.5462335921191455
1504,13,4337.33,-1,64,1.170500554541026,0.7023003327246156
1505,13,6132.946999999999,-1,65,0.5462335921191455,0.0
1506,13,4912.862,-1,66,1.170500554541026,0.5462335921191455
1507,13,4969.93,-1,67,0.0,-0.5462335921191455
1508,13,5976.24,1,68,-1.170500554541026,-1.0144338139355558
1509,13,4317.682,1,69,0.7023003327246156,1.170500554541026
1510,13,5316.243,1,70,-1.170500554541026,-1.092467184238291
1511,13,4742.574000000001,-1,71,1.170500554541026,0.3511501663623078
1512,13,3871.821,1,72,0.27311679605957273,1.170500554541026
1513,13,4601.964,-1,73,1.170500554541026,0.9754171287841883
1514,13,4808.78,1,74,0.0,0.6242669624218805
1515,13,5201.617,1,75,0.0,0.2341001109082052
1516,13,4275.368,-1,76,-1.170500554541026,-0.9754171287841883
1517,13,5999.5,1,77,0.0,-0.2341001109082052
1518,13,5505.031,1,78,-1.3655839802978638,-1.170500554541026
1519,13,4913.246,-1,79,-0.4291835366650429,0.0
1520,13,4816.5920000000015,1,80,-1.170500554541026,-1.0534504990869233
1521,13,3511.801,-1,81,-1.170500554541026,-1.5606674060547012
1522,13,5224.515,1,82,0.0,0.31213348121094026
1523,13,4567.46,-1,83,1.3655839802978638,1.170500554541026
1524,13,6081.765,-1,84,0.8973837584814532,1.170500554541026
1525,13,4722.791,1,85,0.3901668515136753,0.0
1526,13,4314.562,-1,86,0.0,-0.31213348121094026
1527,13,6493.06,1,87,0.5072169069677779,0.0
1528,13,5079.54,1,88,0.0,0.3901668515136753
1529,13,4872.122,1,89,0.31213348121094026,0.0
1530,13,5923.554,-1,90,0.0,-0.3901668515136753
1531,13,5739.7019999999975,-1,91,0.0,0.5072169069677779
1532,13,3609.935,-1,92,0.07803337030273506,0.0
1533,13,4718.206,-1,93,-1.170500554541026,-1.5216507209033339
1534,13,5102.42,1,94,0.6242669624218805,1.170500554541026
1535,13,7662.148,1,95,0.0,0.19508342575683765
1536,13,4659.4,1,96,-0.7803337030273506,-1.170500554541026
1537,13,4809.0909999999985,1,97,-1.5216507209033339,-1.170500554541026
1538,13,7848.312,1,98,1.170500554541026,0.6242669624218805
1539,13,4250.151,1,99,-0.31213348121094026,0.0
1540,13,5007.031,1,100,-1.2095172396923934,-1.170500554541026
1541,13,4118.45,-1,101,-1.4436173506005987,-1.170500554541026
1542,13,5158.058,-1,102,-1.1314838693896585,-1.170500554541026
1543,13,6182.178000000001,-1,103,1.248533924843761,1.170500554541026
1544,13,4159.415,1,104,-1.5606674060547012,-1.170500554541026
1545,13,4275.996,1,105,-1.170500554541026,-1.1314838693896585
1546,13,5795.236,1,106,0.19508342575683765,0.0
1547,13,6365.7959999999985,1,107,-1.170500554541026,-1.2095172396923934
1548,13,5776.521,-1,108,-1.170500554541026,-1.4436173506005987
1549,13,5259.883000000002,1,109,0.0,0.07803337030273506
1550,13,4087.283,1,110,-1.170500554541026,-0.7803337030273506
1551,13,5729.785,-1,111,-1.0534504990869233,-1.170500554541026
1552,13,5653.554,-1,112,1.6387007763574364,1.170500554541026
1553,13,4699.603,1,113,-0.5072169069677779,0.0
1554,13,5410.811,-1,114,0.0,-0.5072169069677779
1555,13,5424.203,1,115,-0.3901668515136753,0.0
1556,13,4785.365,1,116,1.170500554541026,1.6387007763574364
1557,13,3572.615,-1,117,1.170500554541026,1.3655839802978638
1558,13,5652.393,1,118,1.170500554541026,1.248533924843761
1559,13,4758.971,-1,119,1.170500554541026,0.8973837584814532
1560,14,2411.837,1,0,1.170500554541026,1.9898509427197442
1561,14,2699.638,-1,1,-1.2875506099951286,-1.170500554541026
1562,14,5223.695,-1,2,-1.170500554541026,-1.4046006654492311
1563,14,4476.188,-1,3,-0.8973837584814532,-1.170500554541026
1564,14,2077.934,1,4,-1.4826340357519663,-1.170500554541026
1565,14,7788.119000000002,1,5,1.092467184238291,1.170500554541026
1566,14,4302.3,-1,6,-0.07803337030273506,0.0
1567,14,1526.463,-1,7,1.170500554541026,0.4682002218164104
1568,14,3183.118,-1,8,-1.170500554541026,-1.248533924843761
1569,14,3205.175,-1,9,1.170500554541026,0.8193503881787182
1570,14,1604.214,1,10,-1.3265672951464962,-1.170500554541026
1571,14,6530.474,1,11,0.0,0.1170500554541026
1572,14,1491.1570000000006,1,12,-1.170500554541026,-0.9364004436328208
1573,14,1333.8729999999996,-1,13,-1.170500554541026,-1.2875506099951286
1574,14,6532.274,-1,14,1.170500554541026,1.7167341466601715
1575,14,4038.85,-1,15,0.4291835366650429,0.0
1576,14,2546.243,1,16,-0.6242669624218805,0.0
1577,14,4194.065,-1,17,0.1170500554541026,0.0
1578,14,3940.452,-1,18,0.8193503881787182,1.170500554541026
1579,14,2702.658,-1,19,-0.9364004436328208,-1.170500554541026
1580,14,4240.585,-1,20,-1.170500554541026,-1.4826340357519663
1581,14,2314.874,-1,21,1.170500554541026,1.4436173506005987
1582,14,3636.833,-1,22,-0.1170500554541026,0.0
1583,14,1793.3829999999994,1,23,0.0,0.4291835366650429
1584,14,4592.348,1,24,-1.4046006654492311,-1.170500554541026
1585,14,4757.3690000000015,1,25,-1.170500554541026,-0.8973837584814532
1586,14,8235.293,-1,26,-1.170500554541026,-1.3265672951464962
1587,14,6841.092,1,27,1.170500554541026,1.092467184238291
1588,14,2101.964,-1,28,2.0678843130224793,1.170500554541026
1589,14,1568.7910000000006,-1,29,1.9898509427197442,1.170500554541026
1590,14,2712.183,-1,30,1.7947675169629065,1.170500554541026
1591,14,5973.21,1,31,1.170500554541026,2.0678843130224793
1592,14,3141.054,1,32,1.170500554541026,1.7947675169629065
1593,14,1848.953,1,33,-1.248533924843761,-1.170500554541026
1594,14,2688.136,-1,34,0.0,-0.1170500554541026
1595,14,6172.306,-1,35,1.4436173506005987,1.170500554541026
1596,14,3677.141,-1,36,0.0,-0.6242669624218805
1597,14,5200.268,-1,37,0.0,-0.07803337030273506
1598,14,2072.589,-1,38,1.7167341466601715,1.170500554541026
1599,14,4900.0790000000015,1,39,0.4682002218164104,1.170500554541026
1600,14,5015.075,-1,40,1.8728008872656416,1.170500554541026
1601,14,1367.3629999999996,1,41,-1.170500554541026,-0.8583670733300858
1602,14,2077.351,-1,42,-1.0144338139355558,-1.170500554541026
1603,14,3691.81,-1,43,0.0,-0.4291835366650429
1604,14,2172.653,-1,44,0.9754171287841883,1.170500554541026
1605,14,3391.115,-1,45,-0.9754171287841883,-1.170500554541026
1606,14,2218.531,-1,46,0.6242669624218805,0.0
1607,14,2659.04,1,47,0.0,-0.19508342575683765
1608,14,2667.889,1,48,1.170500554541026,1.8728008872656416
1609,14,6196.985,-1,49,-0.8193503881787182,-1.170500554541026
1610,14,5425.233,1,50,1.170500554541026,1.5216507209033339
1611,14,2724.3459999999995,-1,51,-1.092467184238291,-1.170500554541026
1612,14,3105.605,-1,52,-0.8583670733300858,-1.170500554541026
1613,14,10200.481,-1,53,1.5216507209033339,1.170500554541026
1614,14,1216.532,1,54,-0.2341001109082052,0.0
1615,14,2016.147,-1,55,0.2341001109082052,0.0
1616,14,1319.821,1,56,-0.5462335921191455,0.0
1617,14,2841.325,1,57,-1.170500554541026,-0.8193503881787182
1618,14,3073.9440000000004,1,58,0.5462335921191455,1.170500554541026
1619,14,1385.729,-1,59,1.170500554541026,0.27311679605957273
1620,14,3229.698,-1,60,-0.19508342575683765,0.0
1621,14,1760.556,-1,61,-1.170500554541026,-1.3655839802978638
1622,14,3067.113,1,62,0.3511501663623078,1.170500554541026
1623,14,1504.947,1,63,0.0,0.5462335921191455
1624,14,4153.062,-1,64,1.170500554541026,0.7023003327246156
1625,14,1590.977,-1,65,0.5462335921191455,0.0
1626,14,4050.696,-1,66,1.170500554541026,0.5462335921191455
1627,14,1998.507,-1,67,0.0,-0.5462335921191455
1628,14,1634.169,-1,68,-1.170500554541026,-1.0144338139355558
1629,14,2040.699,1,69,0.7023003327246156,1.170500554541026
1630,14,1735.6029999999994,1,70,-1.170500554541026,-1.092467184238291
1631,14,3426.046,-1,71,1.170500554541026,0.3511501663623078
1632,14,1302.233,1,72,0.27311679605957273,1.170500554541026
1633,14,1644.208,-1,73,1.170500554541026,0.9754171287841883
1634,14,2063.859,1,74,0.0,0.6242669624218805
1635,14,4972.136,1,75,0.0,0.2341001109082052
1636,14,1493.973,1,76,-1.170500554541026,-0.9754171287841883
1637,14,9061.277,-1,77,0.0,-0.2341001109082052
1638,14,4308.776,1,78,-1.3655839802978638,-1.170500554541026
1639,14,1492.819,1,79,-0.4291835366650429,0.0
1640,14,7810.219,-1,80,-1.170500554541026,-1.0534504990869233
1641,14,4358.031,-1,81,-1.170500554541026,-1.5606674060547012
1642,14,2082.529,-1,82,0.0,0.31213348121094026
1643,14,4631.005,-1,83,1.3655839802978638,1.170500554541026
1644,14,3551.473,-1,84,0.8973837584814532,1.170500554541026
1645,14,5933.998000000001,-1,85,0.3901668515136753,0.0
1646,14,3048.616,-1,86,0.0,-0.31213348121094026
1647,14,2389.491,-1,87,0.5072169069677779,0.0
1648,14,4955.968,1,88,0.0,0.3901668515136753
1649,14,2224.953,1,89,0.31213348121094026,0.0
1650,14,6152.0369999999975,-1,90,0.0,-0.3901668515136753
1651,14,1813.711,1,91,0.0,0.5072169069677779
1652,14,3622.56,-1,92,0.07803337030273506,0.0
1653,14,2720.344,-1,93,-1.170500554541026,-1.5216507209033339
1654,14,2245.708,1,94,0.6242669624218805,1.170500554541026
1655,14,3785.487,1,95,0.0,0.19508342575683765
1656,14,3213.752,1,96,-0.7803337030273506,-1.170500554541026
1657,14,1167.823,1,97,-1.5216507209033339,-1.170500554541026
1658,14,1525.374,-1,98,1.170500554541026,0.6242669624218805
1659,14,3431.1490000000013,1,99,-0.31213348121094026,0.0
1660,14,2443.1910000000007,-1,100,-1.2095172396923934,-1.170500554541026
1661,14,2221.091,1,101,-1.4436173506005987,-1.170500554541026
1662,14,2935.902,-1,102,-1.1314838693896585,-1.170500554541026
1663,14,1651.364,-1,103,1.248533924843761,1.170500554541026
1664,14,1982.287,1,104,-1.5606674060547012,-1.170500554541026
1665,14,2313.609,-1,105,-1.170500554541026,-1.1314838693896585
1666,14,1456.456,-1,106,0.19508342575683765,0.0
1667,14,1619.36,-1,107,-1.170500554541026,-1.2095172396923934
1668,14,1573.1629999999998,-1,108,-1.170500554541026,-1.4436173506005987
1669,14,1486.638,1,109,0.0,0.07803337030273506
1670,14,1062.845,1,110,-1.170500554541026,-0.7803337030273506
1671,14,3646.101,-1,111,-1.0534504990869233,-1.170500554541026
1672,14,1232.637,-1,112,1.6387007763574364,1.170500554541026
1673,14,2411.8,1,113,-0.5072169069677779,0.0
1674,14,4659.356,-1,114,0.0,-0.5072169069677779
1675,14,1656.365,1,115,-0.3901668515136753,0.0
1676,14,2788.233,-1,116,1.170500554541026,1.6387007763574364
1677,14,3271.608,1,117,1.170500554541026,1.3655839802978638
1678,14,2808.27,1,118,1.170500554541026,1.248533924843761
1679,14,1766.714,-1,119,1.170500554541026,0.8973837584814532
1680,15,2542.2470000000008,1,0,1.170500554541026,1.9898509427197442
1681,15,8627.313,1,1,-1.2875506099951286,-1.170500554541026
1682,15,6442.393,-1,2,-1.170500554541026,-1.4046006654492311
1683,15,2761.314000000001,-1,3,-0.8973837584814532,-1.170500554541026
1684,15,8024.03,-1,4,-1.4826340357519663,-1.170500554541026
1685,15,9336.779,-1,5,1.092467184238291,1.170500554541026
1686,15,9932.804,-1,6,-0.07803337030273506,0.0
1687,15,5285.785,-1,7,1.170500554541026,0.4682002218164104
1688,15,7635.335,-1,8,-1.170500554541026,-1.248533924843761
1689,15,9593.819,-1,9,1.170500554541026,0.8193503881787182
1690,15,4161.977,1,10,-1.3265672951464962,-1.170500554541026
1691,15,14553.385,1,11,0.0,0.1170500554541026
1692,15,5162.8420000000015,-1,12,-1.170500554541026,-0.9364004436328208
1693,15,8179.39,1,13,-1.170500554541026,-1.2875506099951286
1694,15,3542.087,1,14,1.170500554541026,1.7167341466601715
1695,15,13076.186000000005,-1,15,0.4291835366650429,0.0
1696,15,8313.158000000001,1,16,-0.6242669624218805,0.0
1697,15,8153.101,1,17,0.1170500554541026,0.0
1698,15,3705.626,1,18,0.8193503881787182,1.170500554541026
1699,15,8992.614,-1,19,-0.9364004436328208,-1.170500554541026
1700,15,9472.059,-1,20,-1.170500554541026,-1.4826340357519663
1701,15,8236.17,1,21,1.170500554541026,1.4436173506005987
1702,15,15938.463,-1,22,-0.1170500554541026,0.0
1703,15,4239.218,1,23,0.0,0.4291835366650429
1704,15,5746.953,1,24,-1.4046006654492311,-1.170500554541026
1705,15,9532.568,1,25,-1.170500554541026,-0.8973837584814532
1706,15,4722.124,1,26,-1.170500554541026,-1.3265672951464962
1707,15,15369.211,1,27,1.170500554541026,1.092467184238291
1708,15,7385.411,-1,28,2.0678843130224793,1.170500554541026
1709,15,9895.334,-1,29,1.9898509427197442,1.170500554541026
1710,15,6098.063,1,30,1.7947675169629065,1.170500554541026
1711,15,4835.46,1,31,1.170500554541026,2.0678843130224793
1712,15,6008.151999999999,1,32,1.170500554541026,1.7947675169629065
1713,15,6182.891,1,33,-1.248533924843761,-1.170500554541026
1714,15,7349.795999999998,-1,34,0.0,-0.1170500554541026
1715,15,10474.995,1,35,1.4436173506005987,1.170500554541026
1716,15,5421.495,-1,36,0.0,-0.6242669624218805
1717,15,3153.256,1,37,0.0,-0.07803337030273506
1718,15,6262.733,-1,38,1.7167341466601715,1.170500554541026
1719,15,4944.41,1,39,0.4682002218164104,1.170500554541026
1720,15,2979.25,-1,40,1.8728008872656416,1.170500554541026
1721,15,3156.916,1,41,-1.170500554541026,-0.8583670733300858
1722,15,3595.586,1,42,-1.0144338139355558,-1.170500554541026
1723,15,3120.278,-1,43,0.0,-0.4291835366650429
1724,15,2814.763,1,44,0.9754171287841883,1.170500554541026
1725,15,2994.377,-1,45,-0.9754171287841883,-1.170500554541026
1726,15,3986.693,-1,46,0.6242669624218805,0.0
1727,15,3316.936,-1,47,0.0,-0.19508342575683765
1728,15,3882.113,1,48,1.170500554541026,1.8728008872656416
1729,15,6059.312,-1,49,-0.8193503881787182,-1.170500554541026
1730,15,2162.938,1,50,1.170500554541026,1.5216507209033339
1731,15,2865.913,1,51,-1.092467184238291,-1.170500554541026
1732,15,5206.444,1,52,-0.8583670733300858,-1.170500554541026
1733,15,2973.926,-1,53,1.5216507209033339,1.170500554541026
1734,15,2883.09,1,54,-0.2341001109082052,0.0
1735,15,4685.692,1,55,0.2341001109082052,0.0
1736,15,3041.92,1,56,-0.5462335921191455,0.0
1737,15,1800.668,1,57,-1.170500554541026,-0.8193503881787182
1738,15,1763.589,1,58,0.5462335921191455,1.170500554541026
1739,15,2315.861,-1,59,1.170500554541026,0.27311679605957273
1740,15,2945.51,-1,60,-0.19508342575683765,0.0
1741,15,2771.265,-1,61,-1.170500554541026,-1.3655839802978638
1742,15,4139.096,1,62,0.3511501663623078,1.170500554541026
1743,15,2622.048,-1,63,0.0,0.5462335921191455
1744,15,3390.561,-1,64,1.170500554541026,0.7023003327246156
1745,15,2481.136,-1,65,0.5462335921191455,0.0
1746,15,6369.557,1,66,1.170500554541026,0.5462335921191455
1747,15,2528.916,1,67,0.0,-0.5462335921191455
1748,15,3756.866,1,68,-1.170500554541026,-1.0144338139355558
1749,15,4616.184,-1,69,0.7023003327246156,1.170500554541026
1750,15,1577.296,1,70,-1.170500554541026,-1.092467184238291
1751,15,1761.881,1,71,1.170500554541026,0.3511501663623078
1752,15,3794.42,1,72,0.27311679605957273,1.170500554541026
1753,15,2456.939,1,73,1.170500554541026,0.9754171287841883
1754,15,3026.124000000001,1,74,0.0,0.6242669624218805
1755,15,2286.223,1,75,0.0,0.2341001109082052
1756,15,7993.306,1,76,-1.170500554541026,-0.9754171287841883
1757,15,5194.652,1,77,0.0,-0.2341001109082052
1758,15,2514.565,1,78,-1.3655839802978638,-1.170500554541026
1759,15,2769.315,1,79,-0.4291835366650429,0.0
1760,15,2780.69,-1,80,-1.170500554541026,-1.0534504990869233
1761,15,1750.4589999999994,-1,81,-1.170500554541026,-1.5606674060547012
1762,15,1840.353,1,82,0.0,0.31213348121094026
1763,15,3000.427,-1,83,1.3655839802978638,1.170500554541026
1764,15,4711.282,1,84,0.8973837584814532,1.170500554541026
1765,15,6119.472,-1,85,0.3901668515136753,0.0
1766,15,6086.816999999999,1,86,0.0,-0.31213348121094026
1767,15,2073.7,-1,87,0.5072169069677779,0.0
1768,15,1919.815,1,88,0.0,0.3901668515136753
1769,15,1859.665,-1,89,0.31213348121094026,0.0
1770,15,3829.803,1,90,0.0,-0.3901668515136753
1771,15,2262.893,1,91,0.0,0.5072169069677779
1772,15,2561.397,-1,92,0.07803337030273506,0.0
1773,15,2966.97,-1,93,-1.170500554541026,-1.5216507209033339
1774,15,1997.931,1,94,0.6242669624218805,1.170500554541026
1775,15,2338.831,1,95,0.0,0.19508342575683765
1776,15,5661.196,-1,96,-0.7803337030273506,-1.170500554541026
1777,15,2959.739,1,97,-1.5216507209033339,-1.170500554541026
1778,15,2422.732,-1,98,1.170500554541026,0.6242669624218805
1779,15,3826.993,1,99,-0.31213348121094026,0.0
1780,15,1758.854,1,100,-1.2095172396923934,-1.170500554541026
1781,15,3028.583,1,101,-1.4436173506005987,-1.170500554541026
1782,15,2697.3740000000007,1,102,-1.1314838693896585,-1.170500554541026
1783,15,4102.764,1,103,1.248533924843761,1.170500554541026
1784,15,1756.352,1,104,-1.5606674060547012,-1.170500554541026
1785,15,2397.228,1,105,-1.170500554541026,-1.1314838693896585
1786,15,2173.729,-1,106,0.19508342575683765,0.0
1787,15,3967.911,-1,107,-1.170500554541026,-1.2095172396923934
1788,15,3741.914,-1,108,-1.170500554541026,-1.4436173506005987
1789,15,3889.217,1,109,0.0,0.07803337030273506
1790,15,1520.499,1,110,-1.170500554541026,-0.7803337030273506
1791,15,1762.876,1,111,-1.0534504990869233,-1.170500554541026
1792,15,1924.224,-1,112,1.6387007763574364,1.170500554541026
1793,15,3361.83,1,113,-0.5072169069677779,0.0
1794,15,3701.003,-1,114,0.0,-0.5072169069677779
1795,15,1737.534,1,115,-0.3901668515136753,0.0
1796,15,1580.1470000000006,1,116,1.170500554541026,1.6387007763574364
1797,15,3868.655,1,117,1.170500554541026,1.3655839802978638
1798,15,4961.902,1,118,1.170500554541026,1.248533924843761
