parcode,trial,rt,choice,item_left,item_right
0,0,2290,1,1,1
0,1,4110,1,1,1
0,2,1770,1,1,1
0,3,1280,1,1,1
0,4,4570,1,1,1
0,5,2190,1,1,1
0,6,1800,1,1,1
0,7,980,1,1,1
0,8,4100,1,1,1
0,9,6620,1,1,1
0,10,4470,1,1,1
0,11,690,1,1,1
0,12,3620,1,1,1
0,13,580,1,1,1
0,14,4080,1,1,1
0,15,5310,1,1,1
0,16,3280,1,1,1
0,17,16070,1,1,1
0,18,1340,1,1,1
0,19,2070,1,1,1
0,20,1670,-1,1,1
0,21,10450,1,1,1
0,22,920,1,1,1
0,23,1480,1,1,1
0,24,1480,1,1,1
0,25,1830,1,1,1
0,26,1290,1,1,1
0,27,4470,1,1,1
0,28,1730,1,1,1
0,29,1020,1,1,1
0,30,1400,1,1,1
0,31,1470,1,1,1
0,32,2140,-1,1,1
0,33,1800,1,1,1
0,34,3110,1,1,1
0,35,1130,1,1,1
0,36,710,-1,1,1
0,37,6530,-1,1,1
0,38,5100,1,1,1
0,39,2930,1,1,1
0,40,2770,1,1,1
0,41,4930,1,1,1
0,42,2440,-1,1,1
0,43,2400,1,1,1
0,44,2620,1,1,1
0,45,3200,1,1,1
0,46,1150,1,1,1
0,47,4830,1,1,1
0,48,1820,1,1,1
0,49,1120,1,1,1
0,50,1520,1,1,1
0,51,6260,1,1,1
0,52,1130,1,1,1
0,53,1480,1,1,1
0,54,3480,1,1,1
0,55,4100,1,1,1
0,56,2280,-1,1,1
0,57,1640,1,1,1
0,58,21070,1,1,1
0,59,3680,1,1,1
0,60,940,1,1,1
0,61,730,1,1,1
0,62,4540,1,1,1
0,63,4490,1,1,1
0,64,1710,1,1,1
0,65,5050,1,1,1
0,66,3050,1,1,1
0,67,750,1,1,1
0,68,820,-1,1,1
0,69,2330,1,1,1
0,70,3730,1,1,1
0,71,4040,1,1,1
0,72,9270,1,1,1
0,73,3680,1,1,1
0,74,1020,-1,1,1
0,75,930,1,1,1
0,76,870,-1,1,1
0,77,1030,-1,1,1
0,78,2690,1,1,1
0,79,11090,1,1,1
0,80,1190,1,1,1
0,81,1950,1,1,1
0,82,1750,1,1,1
0,83,6670,1,1,1
0,84,3660,1,1,1
0,85,2190,1,1,1
0,86,3340,1,1,1
0,87,1480,1,1,1
0,88,1940,1,1,1
0,89,3270,1,1,1
0,90,2540,1,1,1
0,91,3120,1,1,1
0,92,3350,1,1,1
0,93,2050,1,1,1
0,94,7580,1,1,1
0,95,1440,1,1,1
0,96,2850,1,1,1
0,97,1730,1,1,1
0,98,1920,1,1,1
0,99,3790,1,1,1
0,100,2220,-1,1,1
0,101,1990,1,1,1
0,102,1570,-1,1,1
0,103,4350,1,1,1
0,104,5190,-1,1,1
0,105,4270,1,1,1
0,106,7060,1,1,1
0,107,2110,1,1,1
0,108,1670,1,1,1
0,109,2310,1,1,1
0,110,4200,1,1,1
0,111,1890,1,1,1
0,112,3550,1,1,1
0,113,910,1,1,1
0,114,5310,1,1,1
0,115,1920,1,1,1
0,116,1980,1,1,1
0,117,4580,1,1,1
0,118,1640,1,1,1
0,119,1220,1,1,1
0,120,2110,-1,1,1
0,121,790,1,1,1
0,122,940,1,1,1
0,123,7190,1,1,1
0,124,5760,1,1,1
0,125,6030,1,1,1
0,126,4700,1,1,1
0,127,860,1,1,1
0,128,1080,1,1,1
0,129,3520,-1,1,1
0,130,5800,1,1,1
0,131,1720,1,1,1
0,132,2280,1,1,1
0,133,3580,1,1,1
0,134,1700,1,1,1
0,135,3900,1,1,1
0,136,970,1,1,1
0,137,2800,1,1,1
0,138,1480,1,1,1
0,139,4550,1,1,1
0,140,5720,1,1,1
0,141,530,1,1,1
0,142,2830,1,1,1
0,143,2640,-1,1,1
0,144,5340,1,1,1
0,145,3220,1,1,1
0,146,2890,1,1,1
0,147,2200,1,1,1
0,148,2960,-1,1,1
0,149,2620,-1,1,1
0,150,5330,-1,1,1
0,151,6480,1,1,1
0,152,3070,1,1,1
0,153,1180,1,1,1
0,154,3990,1,1,1
0,155,1390,1,1,1
0,156,1960,1,1,1
0,157,1130,1,1,1
0,158,770,1,1,1
0,159,2770,1,1,1
0,160,2760,1,1,1
0,161,850,1,1,1
0,162,4690,1,1,1
0,163,3330,-1,1,1
0,164,1650,1,1,1
0,165,3200,1,1,1
0,166,2970,1,1,1
0,167,8360,1,1,1
0,168,3120,-1,1,1
0,169,1990,1,1,1
0,170,6360,1,1,1
0,171,4220,1,1,1
0,172,1410,-1,1,1
0,173,5520,1,1,1
0,174,2320,1,1,1
0,175,1970,1,1,1
0,176,4010,1,1,1
0,177,5280,1,1,1
0,178,2650,1,1,1
0,179,1010,1,1,1
0,180,3450,1,1,1
0,181,2970,1,1,1
0,182,2610,-1,1,1
0,183,2230,1,1,1
0,184,10150,1,1,1
0,185,6390,1,1,1
0,186,1140,1,1,1
0,187,1690,1,1,1
0,188,2980,1,1,1
0,189,5970,1,1,1
0,190,10460,1,1,1
0,191,2110,1,1,1
0,192,4130,1,1,1
0,193,1810,1,1,1
0,194,3560,1,1,1
0,195,580,1,1,1
0,196,1240,-1,1,1
0,197,3890,-1,1,1
0,198,6250,1,1,1
0,199,650,1,1,1
0,200,1530,1,1,1
0,201,1040,1,1,1
0,202,1680,1,1,1
0,203,1960,1,1,1
0,204,3320,-1,1,1
0,205,3030,1,1,1
0,206,1330,1,1,1
0,207,1420,1,1,1
0,208,3840,1,1,1
0,209,1700,1,1,1
0,210,2050,-1,1,1
0,211,2760,1,1,1
0,212,8050,1,1,1
0,213,4970,1,1,1
0,214,2430,1,1,1
0,215,2790,1,1,1
0,216,3470,-1,1,1
0,217,2200,-1,1,1
0,218,1730,1,1,1
0,219,4230,1,1,1
0,220,2540,1,1,1
0,221,5360,1,1,1
0,222,1940,1,1,1
0,223,1340,1,1,1
0,224,2110,1,1,1
0,225,2300,1,1,1
0,226,3100,1,1,1
0,227,6300,1,1,1
0,228,1400,1,1,1
0,229,3620,-1,1,1
0,230,1810,1,1,1
0,231,830,1,1,1
0,232,2270,-1,1,1
0,233,1920,1,1,1
0,234,2440,1,1,1
0,235,11720,1,1,1
0,236,1610,1,1,1
0,237,4140,1,1,1
0,238,1440,1,1,1
0,239,3380,-1,1,1
0,240,1190,1,1,1
0,241,4140,1,1,1
0,242,6340,1,1,1
0,243,2040,1,1,1
0,244,5120,1,1,1
0,245,7420,1,1,1
0,246,2640,1,1,1
0,247,1980,1,1,1
0,248,4090,1,1,1
0,249,3680,1,1,1
0,250,4610,1,1,1
0,251,4250,1,1,1
0,252,1600,1,1,1
0,253,1430,1,1,1
0,254,1230,1,1,1
0,255,1460,1,1,1
0,256,2760,1,1,1
0,257,5380,1,1,1
0,258,600,1,1,1
0,259,2110,1,1,1
0,260,6520,1,1,1
0,261,5270,1,1,1
0,262,3360,1,1,1
0,263,1990,1,1,1
0,264,2140,-1,1,1
0,265,3780,1,1,1
0,266,2590,1,1,1
0,267,2320,1,1,1
0,268,13670,1,1,1
0,269,1150,1,1,1
0,270,3210,-1,1,1
0,271,3470,1,1,1
0,272,3470,-1,1,1
0,273,2070,1,1,1
0,274,2330,1,1,1
0,275,4710,1,1,1
0,276,2900,1,1,1
0,277,630,-1,1,1
0,278,4090,1,1,1
0,279,10790,1,1,1
0,280,3240,-1,1,1
0,281,1400,1,1,1
0,282,2360,1,1,1
0,283,3060,1,1,1
0,284,1820,1,1,1
0,285,4180,1,1,1
0,286,2220,1,1,1
0,287,1300,-1,1,1
0,288,3010,1,1,1
0,289,4380,1,1,1
0,290,3880,-1,1,1
0,291,8160,1,1,1
0,292,8720,1,1,1
0,293,680,1,1,1
0,294,3930,1,1,1
0,295,2050,1,1,1
0,296,1940,-1,1,1
0,297,870,1,1,1
0,298,1320,1,1,1
0,299,2640,1,1,1
0,300,1390,1,1,1
0,301,4170,1,1,1
0,302,5660,1,1,1
0,303,2320,1,1,1
0,304,1630,1,1,1
0,305,2150,1,1,1
0,306,1150,1,1,1
0,307,2380,1,1,1
0,308,1010,-1,1,1
0,309,6640,1,1,1
0,310,1670,1,1,1
0,311,1170,1,1,1
0,312,2450,-1,1,1
0,313,3360,1,1,1
0,314,930,1,1,1
0,315,2590,1,1,1
0,316,1770,1,1,1
0,317,4970,1,1,1
0,318,1440,-1,1,1
0,319,6630,1,1,1
0,320,8570,1,1,1
0,321,780,1,1,1
0,322,1090,1,1,1
0,323,3760,1,1,1
0,324,6740,1,1,1
0,325,1890,1,1,1
0,326,1840,1,1,1
0,327,5480,1,1,1
0,328,2470,1,1,1
0,329,1350,1,1,1
0,330,12030,1,1,1
0,331,3740,1,1,1
0,332,3280,1,1,1
0,333,2110,1,1,1
0,334,1950,-1,1,1
0,335,1090,-1,1,1
0,336,3470,1,1,1
0,337,2480,1,1,1
0,338,7210,1,1,1
0,339,3930,1,1,1
0,340,1440,1,1,1
0,341,1630,1,1,1
0,342,3380,1,1,1
0,343,5790,1,1,1
0,344,550,-1,1,1
0,345,1160,1,1,1
0,346,4830,1,1,1
0,347,1590,1,1,1
0,348,1950,1,1,1
0,349,5510,1,1,1
0,350,560,1,1,1
0,351,2200,1,1,1
0,352,2340,1,1,1
0,353,4080,1,1,1
0,354,910,-1,1,1
0,355,960,1,1,1
0,356,2840,1,1,1
0,357,1940,1,1,1
0,358,2270,-1,1,1
0,359,5710,1,1,1
0,360,1450,1,1,1
0,361,4360,1,1,1
0,362,1490,1,1,1
0,363,2360,1,1,1
0,364,6010,1,1,1
0,365,3240,-1,1,1
0,366,1570,1,1,1
0,367,1140,1,1,1
0,368,870,1,1,1
0,369,2570,1,1,1
0,370,2780,1,1,1
0,371,4630,1,1,1
0,372,5780,1,1,1
0,373,1640,1,1,1
0,374,16270,1,1,1
0,375,1180,1,1,1
0,376,4790,1,1,1
0,377,5010,1,1,1
0,378,1560,1,1,1
0,379,3720,1,1,1
0,380,3680,1,1,1
0,381,2290,1,1,1
0,382,6630,1,1,1
0,383,1770,1,1,1
0,384,4220,1,1,1
0,385,1470,1,1,1
0,386,3400,1,1,1
0,387,1840,1,1,1
0,388,4910,1,1,1
0,389,3520,1,1,1
0,390,1150,1,1,1
0,391,1800,1,1,1
0,392,790,1,1,1
0,393,3590,1,1,1
0,394,4830,1,1,1
0,395,3540,1,1,1
0,396,1100,1,1,1
0,397,1640,1,1,1
0,398,11540,1,1,1
0,399,1230,-1,1,1
0,400,1370,1,-1,-1
0,401,1810,1,-1,-1
0,402,780,-1,-1,-1
0,403,14210,1,-1,-1
0,404,6730,-1,-1,-1
0,405,4330,1,-1,-1
0,406,12100,1,-1,-1
0,407,2580,1,-1,-1
0,408,2740,-1,-1,-1
0,409,15580,-1,-1,-1
0,410,1150,1,-1,-1
0,411,2670,-1,-1,-1
0,412,4580,-1,-1,-1
0,413,14930,1,-1,-1
0,414,5720,-1,-1,-1
0,415,1950,-1,-1,-1
0,416,3670,-1,-1,-1
0,417,930,1,-1,-1
0,418,4920,1,-1,-1
0,419,6170,-1,-1,-1
0,420,5700,-1,-1,-1
0,421,2460,-1,-1,-1
0,422,720,1,-1,-1
0,423,1920,1,-1,-1
0,424,750,1,-1,-1
0,425,5220,1,-1,-1
0,426,4950,-1,-1,-1
0,427,3100,1,-1,-1
0,428,1240,-1,-1,-1
0,429,480,-1,-1,-1
0,430,11340,1,-1,-1
0,431,1610,-1,-1,-1
0,432,5290,1,-1,-1
0,433,6310,1,-1,-1
0,434,3580,-1,-1,-1
0,435,4320,1,-1,-1
0,436,19520,-1,-1,-1
0,437,2710,-1,-1,-1
0,438,4380,-1,-1,-1
0,439,1420,-1,-1,-1
0,440,4250,1,-1,-1
0,441,6230,1,-1,-1
0,442,1590,-1,-1,-1
0,443,1840,1,-1,-1
0,444,10890,-1,-1,-1
0,445,2280,-1,-1,-1
0,446,7160,1,-1,-1
0,447,1270,-1,-1,-1
0,448,1620,1,-1,-1
0,449,4180,1,-1,-1
0,450,5410,-1,-1,-1
0,451,9430,1,-1,-1
0,452,6320,-1,-1,-1
0,453,8100,1,-1,-1
0,454,1440,-1,-1,-1
0,455,850,1,-1,-1
0,456,10510,-1,-1,-1
0,457,3040,-1,-1,-1
0,458,6330,1,-1,-1
0,459,3340,-1,-1,-1
0,460,3390,-1,-1,-1
0,461,1150,1,-1,-1
0,462,3630,1,-1,-1
0,463,610,-1,-1,-1
0,464,5700,1,-1,-1
0,465,380,-1,-1,-1
0,466,2580,1,-1,-1
0,467,3800,-1,-1,-1
0,468,5910,-1,-1,-1
0,469,3330,-1,-1,-1
0,470,11710,-1,-1,-1
0,471,4820,1,-1,-1
0,472,5740,1,-1,-1
0,473,15530,-1,-1,-1
0,474,5740,1,-1,-1
0,475,2620,1,-1,-1
0,476,13360,-1,-1,-1
0,477,4200,1,-1,-1
0,478,610,-1,-1,-1
0,479,1140,-1,-1,-1
0,480,5730,1,-1,-1
0,481,1200,1,-1,-1
0,482,12060,1,-1,-1
0,483,600,1,-1,-1
0,484,1920,1,-1,-1
0,485,8160,1,-1,-1
0,486,8260,1,-1,-1
0,487,1850,1,-1,-1
0,488,1790,-1,-1,-1
0,489,1650,-1,-1,-1
0,490,920,1,-1,-1
0,491,4890,1,-1,-1
0,492,3550,1,-1,-1
0,493,3160,1,-1,-1
0,494,13470,-1,-1,-1
0,495,5700,-1,-1,-1
0,496,940,-1,-1,-1
0,497,4120,1,-1,-1
0,498,850,1,-1,-1
0,499,5960,-1,-1,-1
0,500,2820,-1,-1,-1
0,501,2810,1,-1,-1
0,502,2290,1,-1,-1
0,503,770,1,-1,-1
0,504,6590,1,-1,-1
0,505,9160,1,-1,-1
0,506,1820,1,-1,-1
0,507,8090,-1,-1,-1
0,508,690,-1,-1,-1
0,509,1040,-1,-1,-1
0,510,5630,1,-1,-1
0,511,26820,-1,-1,-1
0,512,1340,1,-1,-1
0,513,3190,1,-1,-1
0,514,5510,1,-1,-1
0,515,3940,1,-1,-1
0,516,2200,-1,-1,-1
0,517,3700,1,-1,-1
0,518,2870,1,-1,-1
0,519,2160,-1,-1,-1
0,520,4680,1,-1,-1
0,521,2070,-1,-1,-1
0,522,400,1,-1,-1
0,523,440,1,-1,-1
0,524,8280,1,-1,-1
0,525,1460,-1,-1,-1
0,526,1160,1,-1,-1
0,527,2670,-1,-1,-1
0,528,1390,1,-1,-1
0,529,2330,-1,-1,-1
0,530,12440,1,-1,-1
0,531,1520,1,-1,-1
0,532,7760,1,-1,-1
0,533,7640,-1,-1,-1
0,534,880,1,-1,-1
0,535,1680,1,-1,-1
0,536,10290,1,-1,-1
0,537,4360,-1,-1,-1
0,538,3910,1,-1,-1
0,539,9170,1,-1,-1
0,540,16060,1,-1,-1
0,541,2390,-1,-1,-1
0,542,970,1,-1,-1
0,543,1890,-1,-1,-1
0,544,1940,-1,-1,-1
0,545,3190,1,-1,-1
0,546,11990,1,-1,-1
0,547,5180,1,-1,-1
0,548,2540,1,-1,-1
0,549,2610,1,-1,-1
0,550,1800,-1,-1,-1
0,551,1560,1,-1,-1
0,552,4150,1,-1,-1
0,553,6740,1,-1,-1
0,554,4960,1,-1,-1
0,555,430,1,-1,-1
0,556,3760,1,-1,-1
0,557,620,1,-1,-1
0,558,1970,-1,-1,-1
0,559,3220,1,-1,-1
0,560,1760,1,-1,-1
0,561,4360,-1,-1,-1
0,562,8770,1,-1,-1
0,563,8950,1,-1,-1
0,564,5960,1,-1,-1
0,565,1160,-1,-1,-1
0,566,2230,1,-1,-1
0,567,3760,1,-1,-1
0,568,6910,-1,-1,-1
0,569,4660,1,-1,-1
0,570,9040,1,-1,-1
0,571,1610,1,-1,-1
0,572,3070,-1,-1,-1
0,573,5810,1,-1,-1
0,574,2560,-1,-1,-1
0,575,3310,-1,-1,-1
0,576,2660,-1,-1,-1
0,577,750,-1,-1,-1
0,578,1320,1,-1,-1
0,579,5240,-1,-1,-1
0,580,4090,1,-1,-1
0,581,4860,1,-1,-1
0,582,1630,-1,-1,-1
0,583,620,1,-1,-1
0,584,1070,1,-1,-1
0,585,2150,-1,-1,-1
0,586,10910,1,-1,-1
0,587,4190,1,-1,-1
0,588,8210,1,-1,-1
0,589,3880,1,-1,-1
0,590,2010,-1,-1,-1
0,591,2080,-1,-1,-1
0,592,2530,1,-1,-1
0,593,3360,1,-1,-1
0,594,4780,-1,-1,-1
0,595,4520,-1,-1,-1
0,596,5260,-1,-1,-1
0,597,3040,1,-1,-1
0,598,9430,1,-1,-1
0,599,1850,-1,-1,-1
0,600,5350,-1,-1,-1
0,601,3470,1,-1,-1
0,602,4140,-1,-1,-1
0,603,3970,-1,-1,-1
0,604,660,1,-1,-1
0,605,10460,1,-1,-1
0,606,3290,1,-1,-1
0,607,3700,1,-1,-1
0,608,2960,-1,-1,-1
0,609,2310,-1,-1,-1
0,610,2630,1,-1,-1
0,611,4760,-1,-1,-1
0,612,12410,-1,-1,-1
0,613,5500,1,-1,-1
0,614,780,1,-1,-1
0,615,10980,1,-1,-1
0,616,4760,-1,-1,-1
0,617,1080,-1,-1,-1
0,618,6670,1,-1,-1
0,619,2230,1,-1,-1
0,620,7930,1,-1,-1
0,621,2010,1,-1,-1
0,622,3970,-1,-1,-1
0,623,6670,1,-1,-1
0,624,14630,-1,-1,-1
0,625,2910,1,-1,-1
0,626,2920,1,-1,-1
0,627,2990,1,-1,-1
0,628,1130,1,-1,-1
0,629,1140,1,-1,-1
0,630,2890,1,-1,-1
0,631,14890,1,-1,-1
0,632,1700,-1,-1,-1
0,633,8420,1,-1,-1
0,634,2120,-1,-1,-1
0,635,4090,-1,-1,-1
0,636,1330,1,-1,-1
0,637,1320,1,-1,-1
0,638,9330,1,-1,-1
0,639,5670,1,-1,-1
0,640,3790,1,-1,-1
0,641,3380,1,-1,-1
0,642,6770,1,-1,-1
0,643,5320,1,-1,-1
0,644,9710,-1,-1,-1
0,645,9770,1,-1,-1
0,646,1020,-1,-1,-1
0,647,2740,-1,-1,-1
0,648,3220,1,-1,-1
0,649,8380,-1,-1,-1
0,650,7830,1,-1,-1
0,651,1880,-1,-1,-1
0,652,3880,-1,-1,-1
0,653,2930,1,-1,-1
0,654,1510,1,-1,-1
0,655,7460,1,-1,-1
0,656,1980,-1,-1,-1
0,657,3120,-1,-1,-1
0,658,1730,-1,-1,-1
0,659,12470,-1,-1,-1
0,660,3230,-1,-1,-1
0,661,7460,-1,-1,-1
0,662,1860,1,-1,-1
0,663,1420,-1,-1,-1
0,664,6620,1,-1,-1
0,665,11840,-1,-1,-1
0,666,510,-1,-1,-1
0,667,680,1,-1,-1
0,668,1270,1,-1,-1
0,669,15650,1,-1,-1
0,670,1470,1,-1,-1
0,671,4170,1,-1,-1
0,672,2440,1,-1,-1
0,673,5160,1,-1,-1
0,674,560,1,-1,-1
0,675,1970,1,-1,-1
0,676,1660,-1,-1,-1
0,677,1730,1,-1,-1
0,678,580,1,-1,-1
0,679,3720,-1,-1,-1
0,680,1470,1,-1,-1
0,681,3360,1,-1,-1
0,682,3460,-1,-1,-1
0,683,5860,1,-1,-1
0,684,1890,1,-1,-1
0,685,2660,1,-1,-1
0,686,2520,1,-1,-1
0,687,1450,-1,-1,-1
0,688,12210,-1,-1,-1
0,689,510,1,-1,-1
0,690,1950,1,-1,-1
0,691,2420,1,-1,-1
0,692,1490,1,-1,-1
0,693,8190,1,-1,-1
0,694,1180,1,-1,-1
0,695,10400,-1,-1,-1
0,696,3650,1,-1,-1
0,697,10160,1,-1,-1
0,698,1420,1,-1,-1
0,699,2550,-1,-1,-1
0,700,1080,1,-1,-1
0,701,840,1,-1,-1
0,702,7710,1,-1,-1
0,703,2360,1,-1,-1
0,704,1320,1,-1,-1
0,705,4800,-1,-1,-1
0,706,3640,-1,-1,-1
0,707,2860,-1,-1,-1
0,708,2090,1,-1,-1
0,709,3280,-1,-1,-1
0,710,1170,-1,-1,-1
0,711,840,1,-1,-1
0,712,1670,1,-1,-1
0,713,2510,-1,-1,-1
0,714,6320,-1,-1,-1
0,715,6070,1,-1,-1
0,716,14180,-1,-1,-1
0,717,6180,1,-1,-1
0,718,3990,-1,-1,-1
0,719,1340,1,-1,-1
0,720,3410,1,-1,-1
0,721,970,1,-1,-1
0,722,1500,-1,-1,-1
0,723,2210,1,-1,-1
0,724,1940,1,-1,-1
0,725,11540,-1,-1,-1
0,726,910,-1,-1,-1
0,727,870,-1,-1,-1
0,728,1740,-1,-1,-1
0,729,3450,1,-1,-1
0,730,3160,1,-1,-1
0,731,7370,-1,-1,-1
0,732,1890,-1,-1,-1
0,733,2770,1,-1,-1
0,734,5710,-1,-1,-1
0,735,1010,-1,-1,-1
0,736,17660,-1,-1,-1
0,737,510,-1,-1,-1
0,738,2170,-1,-1,-1
0,739,4440,1,-1,-1
0,740,4780,-1,-1,-1
0,741,7340,1,-1,-1
0,742,1850,1,-1,-1
0,743,1740,1,-1,-1
0,744,7570,1,-1,-1
0,745,3960,-1,-1,-1
0,746,4170,-1,-1,-1
0,747,5980,-1,-1,-1
0,748,1960,1,-1,-1
0,749,3100,1,-1,-1
0,750,1110,1,-1,-1
0,751,3410,-1,-1,-1
0,752,3210,-1,-1,-1
0,753,770,1,-1,-1
0,754,3660,1,-1,-1
0,755,1540,1,-1,-1
0,756,2820,1,-1,-1
0,757,2300,1,-1,-1
0,758,3110,1,-1,-1
0,759,2710,1,-1,-1
0,760,3170,1,-1,-1
0,761,6830,1,-1,-1
0,762,760,-1,-1,-1
0,763,2870,1,-1,-1
0,764,3310,1,-1,-1
0,765,7350,-1,-1,-1
0,766,2860,1,-1,-1
0,767,2630,-1,-1,-1
0,768,5420,1,-1,-1
0,769,3740,1,-1,-1
0,770,2640,-1,-1,-1
0,771,5190,-1,-1,-1
0,772,8590,-1,-1,-1
0,773,2110,-1,-1,-1
0,774,2790,1,-1,-1
0,775,2380,1,-1,-1
0,776,6360,1,-1,-1
0,777,4910,-1,-1,-1
0,778,4720,-1,-1,-1
0,779,11200,1,-1,-1
0,780,2240,1,-1,-1
0,781,2410,-1,-1,-1
0,782,24610,-1,-1,-1
0,783,3390,-1,-1,-1
0,784,2090,-1,-1,-1
0,785,3440,-1,-1,-1
0,786,3410,1,-1,-1
0,787,900,1,-1,-1
0,788,5970,-1,-1,-1
0,789,3510,-1,-1,-1
0,790,2610,-1,-1,-1
0,791,1810,-1,-1,-1
0,792,2900,1,-1,-1
0,793,5120,-1,-1,-1
0,794,4480,1,-1,-1
0,795,5580,1,-1,-1
0,796,1130,-1,-1,-1
0,797,2120,1,-1,-1
0,798,2990,-1,-1,-1
0,799,11750,1,-1,-1
0,800,4180,-1,-1,-1
0,801,2580,-1,-1,-1
0,802,4340,-1,-1,-1
0,803,2010,-1,-1,-1
0,804,2180,-1,-1,-1
0,805,2010,1,-1,-1
0,806,6820,-1,-1,-1
0,807,1240,1,-1,-1
0,808,1190,-1,-1,-1
0,809,2920,1,-1,-1
0,810,1830,1,-1,-1
0,811,6570,-1,-1,-1
0,812,6550,-1,-1,-1
0,813,600,1,-1,-1
0,814,1810,-1,-1,-1
0,815,320,1,-1,-1
0,816,5170,-1,-1,-1
0,817,1630,-1,-1,-1
0,818,1700,1,-1,-1
0,819,7770,-1,-1,-1
0,820,4320,1,-1,-1
0,821,2950,-1,-1,-1
0,822,3680,-1,-1,-1
0,823,2280,-1,-1,-1
0,824,990,1,-1,-1
0,825,5150,-1,-1,-1
0,826,7120,-1,-1,-1
0,827,7040,-1,-1,-1
0,828,3920,1,-1,-1
0,829,6100,1,-1,-1
0,830,3280,-1,-1,-1
0,831,5160,-1,-1,-1
0,832,6550,-1,-1,-1
0,833,7470,-1,-1,-1
0,834,690,-1,-1,-1
0,835,4690,1,-1,-1
0,836,8090,1,-1,-1
0,837,710,1,-1,-1
0,838,1230,-1,-1,-1
0,839,7840,1,-1,-1
0,840,2620,-1,-1,-1
0,841,8620,-1,-1,-1
0,842,5100,-1,-1,-1
0,843,1020,-1,-1,-1
0,844,4940,-1,-1,-1
0,845,4760,-1,-1,-1
0,846,1180,1,-1,-1
0,847,5100,-1,-1,-1
0,848,2380,-1,-1,-1
0,849,6530,-1,-1,-1
0,850,2690,-1,-1,-1
0,851,3050,-1,-1,-1
0,852,2580,-1,-1,-1
0,853,2600,-1,-1,-1
0,854,4180,-1,-1,-1
0,855,680,-1,-1,-1
0,856,2720,1,-1,-1
0,857,11180,-1,-1,-1
0,858,2610,1,-1,-1
0,859,15560,-1,-1,-1
0,860,3710,-1,-1,-1
0,861,11900,-1,-1,-1
0,862,3800,1,-1,-1
0,863,1240,-1,-1,-1
0,864,2300,1,-1,-1
0,865,3710,1,-1,-1
0,866,2770,-1,-1,-1
0,867,5610,-1,-1,-1
0,868,1730,1,-1,-1
0,869,1950,1,-1,-1
0,870,5460,-1,-1,-1
0,871,1580,1,-1,-1
0,872,1540,-1,-1,-1
0,873,2380,-1,-1,-1
0,874,1860,-1,-1,-1
0,875,6420,-1,-1,-1
0,876,1190,-1,-1,-1
0,877,5770,-1,-1,-1
0,878,7190,1,-1,-1
0,879,2570,-1,-1,-1
0,880,1430,1,-1,-1
0,881,1570,1,-1,-1
0,882,7090,-1,-1,-1
0,883,7190,1,-1,-1
0,884,5690,1,-1,-1
0,885,1220,-1,-1,-1
0,886,11100,-1,-1,-1
0,887,1620,-1,-1,-1
0,888,5920,1,-1,-1
0,889,1360,-1,-1,-1
0,890,1810,1,-1,-1
0,891,1450,-1,-1,-1
0,892,3350,-1,-1,-1
0,893,4080,-1,-1,-1
0,894,2270,-1,-1,-1
0,895,8010,-1,-1,-1
0,896,1350,-1,-1,-1
0,897,2160,-1,-1,-1
0,898,2240,-1,-1,-1
0,899,2450,1,-1,-1
0,900,5000,-1,-1,-1
0,901,6310,-1,-1,-1
0,902,3630,1,-1,-1
0,903,940,-1,-1,-1
0,904,680,1,-1,-1
0,905,4560,1,-1,-1
0,906,8760,-1,-1,-1
0,907,2170,-1,-1,-1
0,908,3290,-1,-1,-1
0,909,3820,-1,-1,-1
0,910,1890,1,-1,-1
0,911,1630,-1,-1,-1
0,912,2690,-1,-1,-1
0,913,6150,-1,-1,-1
0,914,2170,-1,-1,-1
0,915,3960,1,-1,-1
0,916,2300,-1,-1,-1
0,917,2510,1,-1,-1
0,918,7550,1,-1,-1
0,919,4580,-1,-1,-1
0,920,2840,-1,-1,-1
0,921,1880,-1,-1,-1
0,922,710,-1,-1,-1
0,923,2170,1,-1,-1
0,924,1790,-1,-1,-1
0,925,5210,-1,-1,-1
0,926,5130,-1,-1,-1
0,927,2850,1,-1,-1
0,928,11600,-1,-1,-1
0,929,2290,1,-1,-1
0,930,3610,-1,-1,-1
0,931,1710,-1,-1,-1
0,932,2440,-1,-1,-1
0,933,1210,-1,-1,-1
0,934,5580,-1,-1,-1
0,935,6590,-1,-1,-1
0,936,4640,1,-1,-1
0,937,1250,-1,-1,-1
0,938,27650,-1,-1,-1
0,939,1110,1,-1,-1
0,940,3770,1,-1,-1
0,941,4150,-1,-1,-1
0,942,2070,-1,-1,-1
0,943,1630,-1,-1,-1
0,944,1850,-1,-1,-1
0,945,2170,-1,-1,-1
0,946,3140,-1,-1,-1
0,947,1790,-1,-1,-1
0,948,11120,1,-1,-1
0,949,1320,1,-1,-1
0,950,1080,-1,-1,-1
0,951,4490,-1,-1,-1
0,952,2760,1,-1,-1
0,953,6160,-1,-1,-1
0,954,4120,-1,-1,-1
0,955,1360,1,-1,-1
0,956,2930,-1,-1,-1
0,957,2140,-1,-1,-1
0,958,1800,1,-1,-1
0,959,9100,-1,-1,-1
0,960,9170,-1,-1,-1
0,961,4710,-1,-1,-1
0,962,3500,-1,-1,-1
0,963,1110,-1,-1,-1
0,964,1040,1,-1,-1
0,965,1380,1,-1,-1
0,966,1710,-1,-1,-1
0,967,9800,-1,-1,-1
0,968,3110,-1,-1,-1
0,969,4180,-1,-1,-1
0,970,8340,1,-1,-1
0,971,1870,-1,-1,-1
0,972,5260,-1,-1,-1
0,973,1930,-1,-1,-1
0,974,9460,1,-1,-1
0,975,1030,-1,-1,-1
0,976,4100,-1,-1,-1
0,977,880,1,-1,-1
0,978,1710,-1,-1,-1
0,979,2700,-1,-1,-1
0,980,3590,-1,-1,-1
0,981,1630,-1,-1,-1
0,982,550,-1,-1,-1
0,983,1210,-1,-1,-1
0,984,9110,-1,-1,-1
0,985,5290,1,-1,-1
0,986,1630,-1,-1,-1
0,987,450,1,-1,-1
0,988,4230,-1,-1,-1
0,989,12250,-1,-1,-1
0,990,2690,-1,-1,-1
0,991,760,1,-1,-1
0,992,4060,1,-1,-1
0,993,2620,1,-1,-1
0,994,1370,1,-1,-1
0,995,12690,1,-1,-1
0,996,3070,-1,-1,-1
0,997,13070,1,-1,-1
0,998,2310,-1,-1,-1
0,999,2330,1,-1,-1
0,1000,1340,1,-1,-1
0,1001,1140,1,-1,-1
0,1002,5550,1,-1,-1
0,1003,6890,1,-1,-1
0,1004,4560,-1,-1,-1
0,1005,4030,-1,-1,-1
0,1006,6200,1,-1,-1
0,1007,5650,1,-1,-1
0,1008,5820,1,-1,-1
0,1009,1650,1,-1,-1
0,1010,2530,-1,-1,-1
0,1011,1220,-1,-1,-1
0,1012,1580,-1,-1,-1
0,1013,4370,-1,-1,-1
0,1014,6140,-1,-1,-1
0,1015,1380,-1,-1,-1
0,1016,1980,-1,-1,-1
0,1017,3440,-1,-1,-1
0,1018,2150,-1,-1,-1
0,1019,1910,-1,-1,-1
0,1020,3940,1,-1,-1
0,1021,4790,-1,-1,-1
0,1022,3550,-1,-1,-1
0,1023,1530,-1,-1,-1
0,1024,4860,-1,-1,-1
0,1025,4040,-1,-1,-1
0,1026,1350,1,-1,-1
0,1027,10900,1,-1,-1
0,1028,7190,1,-1,-1
0,1029,6510,1,-1,-1
0,1030,4890,-1,-1,-1
0,1031,2890,-1,-1,-1
0,1032,2350,1,-1,-1
0,1033,10450,1,-1,-1
0,1034,4350,1,-1,-1
0,1035,2390,-1,-1,-1
0,1036,2950,-1,-1,-1
0,1037,4000,-1,-1,-1
0,1038,3230,-1,-1,-1
0,1039,3950,-1,-1,-1
0,1040,1730,-1,-1,-1
0,1041,4560,1,-1,-1
0,1042,4010,1,-1,-1
0,1043,990,-1,-1,-1
0,1044,4340,1,-1,-1
0,1045,2660,1,-1,-1
0,1046,660,1,-1,-1
0,1047,280,1,-1,-1
0,1048,1860,-1,-1,-1
0,1049,1370,1,-1,-1
0,1050,4170,-1,-1,-1
0,1051,2910,-1,-1,-1
0,1052,650,1,-1,-1
0,1053,9340,-1,-1,-1
0,1054,1080,1,-1,-1
0,1055,760,-1,-1,-1
0,1056,4600,-1,-1,-1
0,1057,680,1,-1,-1
0,1058,2210,1,-1,-1
0,1059,3010,-1,-1,-1
0,1060,1440,-1,-1,-1
0,1061,1800,-1,-1,-1
0,1062,1680,-1,-1,-1
0,1063,3320,1,-1,-1
0,1064,2820,-1,-1,-1
0,1065,5730,-1,-1,-1
0,1066,4210,-1,-1,-1
0,1067,2130,-1,-1,-1
0,1068,7700,1,-1,-1
0,1069,730,-1,-1,-1
0,1070,2490,-1,-1,-1
0,1071,1310,-1,-1,-1
0,1072,830,1,-1,-1
0,1073,3680,-1,-1,-1
0,1074,3890,-1,-1,-1
0,1075,530,1,-1,-1
0,1076,2620,-1,-1,-1
0,1077,1690,1,-1,-1
0,1078,6820,-1,-1,-1
0,1079,4760,-1,-1,-1
0,1080,850,-1,-1,-1
0,1081,6100,1,-1,-1
0,1082,3120,1,-1,-1
0,1083,10810,-1,-1,-1
0,1084,3750,1,-1,-1
0,1085,4990,1,-1,-1
0,1086,310,1,-1,-1
0,1087,1450,-1,-1,-1
0,1088,8820,1,-1,-1
0,1089,1160,1,-1,-1
0,1090,700,-1,-1,-1
0,1091,2800,-1,-1,-1
0,1092,4040,-1,-1,-1
0,1093,1640,-1,-1,-1
0,1094,4790,-1,-1,-1
0,1095,2280,-1,-1,-1
0,1096,8260,-1,-1,-1
0,1097,1300,-1,-1,-1
0,1098,4080,-1,-1,-1
0,1099,2730,-1,-1,-1
0,1100,1910,-1,-1,-1
0,1101,2390,-1,-1,-1
0,1102,3220,1,-1,-1
0,1103,5310,-1,-1,-1
0,1104,3490,-1,-1,-1
0,1105,17490,1,-1,-1
0,1106,910,1,-1,-1
0,1107,4280,-1,-1,-1
0,1108,2310,-1,-1,-1
0,1109,5270,-1,-1,-1
0,1110,3290,1,-1,-1
0,1111,1850,1,-1,-1
0,1112,1370,-1,-1,-1
0,1113,10680,-1,-1,-1
0,1114,5350,1,-1,-1
0,1115,3370,-1,-1,-1
0,1116,1910,1,-1,-1
0,1117,4510,-1,-1,-1
0,1118,5210,-1,-1,-1
0,1119,2950,-1,-1,-1
0,1120,5700,-1,-1,-1
0,1121,3070,1,-1,-1
0,1122,1080,1,-1,-1
0,1123,4720,-1,-1,-1
0,1124,3180,-1,-1,-1
0,1125,2430,-1,-1,-1
0,1126,3230,1,-1,-1
0,1127,4520,-1,-1,-1
0,1128,2370,1,-1,-1
0,1129,1930,1,-1,-1
0,1130,2700,1,-1,-1
0,1131,3050,-1,-1,-1
0,1132,7660,-1,-1,-1
0,1133,14480,-1,-1,-1
0,1134,3740,-1,-1,-1
0,1135,4360,1,-1,-1
0,1136,4550,-1,-1,-1
0,1137,1480,1,-1,-1
0,1138,520,1,-1,-1
0,1139,6350,-1,-1,-1
0,1140,1430,-1,-1,-1
0,1141,8390,-1,-1,-1
0,1142,1820,1,-1,-1
0,1143,7960,1,-1,-1
0,1144,1840,-1,-1,-1
0,1145,3460,-1,-1,-1
0,1146,2710,-1,-1,-1
0,1147,10280,1,-1,-1
0,1148,1260,-1,-1,-1
0,1149,12970,1,-1,-1
0,1150,3360,1,-1,-1
0,1151,780,1,-1,-1
0,1152,18450,1,-1,-1
0,1153,3100,1,-1,-1
0,1154,1090,-1,-1,-1
0,1155,22970,-1,-1,-1
0,1156,1690,-1,-1,-1
0,1157,4350,1,-1,-1
0,1158,1850,-1,-1,-1
0,1159,1370,-1,-1,-1
0,1160,2280,1,-1,-1
0,1161,4690,1,-1,-1
0,1162,2860,-1,-1,-1
0,1163,6860,1,-1,-1
0,1164,2750,-1,-1,-1
0,1165,4190,-1,-1,-1
0,1166,12530,1,-1,-1
0,1167,9660,1,-1,-1
0,1168,1450,-1,-1,-1
0,1169,790,1,-1,-1
0,1170,3180,-1,-1,-1
0,1171,3560,1,-1,-1
0,1172,2160,1,-1,-1
0,1173,3120,-1,-1,-1
0,1174,1130,1,-1,-1
0,1175,1950,-1,-1,-1
0,1176,3700,1,-1,-1
0,1177,5000,1,-1,-1
0,1178,1960,-1,-1,-1
0,1179,630,1,-1,-1
0,1180,4170,-1,-1,-1
0,1181,7240,-1,-1,-1
0,1182,12480,-1,-1,-1
0,1183,3880,1,-1,-1
0,1184,860,-1,-1,-1
0,1185,1510,-1,-1,-1
0,1186,780,-1,-1,-1
0,1187,3450,-1,-1,-1
0,1188,5160,-1,-1,-1
0,1189,3740,-1,-1,-1
0,1190,6360,-1,-1,-1
0,1191,1050,-1,-1,-1
0,1192,1200,-1,-1,-1
0,1193,3030,1,-1,-1
0,1194,1360,1,-1,-1
0,1195,4380,-1,-1,-1
0,1196,7080,-1,-1,-1
0,1197,2350,-1,-1,-1
0,1198,1210,-1,-1,-1
0,1199,6490,1,-1,-1
0,1200,1720,-1,0,-1
0,1201,2370,-1,0,-1
0,1202,5170,1,0,-1
0,1203,3130,-1,0,-1
0,1204,2500,1,0,-1
0,1205,5960,-1,0,-1
0,1206,3590,1,0,-1
0,1207,8700,-1,0,-1
0,1208,4090,-1,0,-1
0,1209,6540,-1,0,-1
0,1210,4470,-1,0,-1
0,1211,1230,-1,0,-1
0,1212,8830,1,0,-1
0,1213,4460,1,0,-1
0,1214,5010,1,0,-1
0,1215,2070,-1,0,-1
0,1216,2380,1,0,-1
0,1217,3900,-1,0,-1
0,1218,4850,1,0,-1
0,1219,1260,-1,0,-1
0,1220,2140,-1,0,-1
0,1221,2430,-1,0,-1
0,1222,3260,1,0,-1
0,1223,1930,1,0,-1
0,1224,4180,-1,0,-1
0,1225,6960,1,0,-1
0,1226,2500,-1,0,-1
0,1227,2410,1,0,-1
0,1228,3570,1,0,-1
0,1229,7530,1,0,-1
0,1230,4500,1,0,-1
0,1231,980,-1,0,-1
0,1232,4860,-1,0,-1
0,1233,3360,1,0,-1
0,1234,7430,-1,0,-1
0,1235,2180,-1,0,-1
0,1236,7800,1,0,-1
0,1237,5390,1,0,-1
0,1238,2940,-1,0,-1
0,1239,8170,-1,0,-1
0,1240,1350,-1,0,-1
0,1241,1160,1,0,-1
0,1242,9290,-1,0,-1
0,1243,1070,1,0,-1
0,1244,4040,1,0,-1
0,1245,4500,-1,0,-1
0,1246,1280,1,0,-1
0,1247,10670,-1,0,-1
0,1248,4150,-1,0,-1
0,1249,6900,-1,0,-1
0,1250,1000,1,0,-1
0,1251,2480,-1,0,-1
0,1252,3230,1,0,-1
0,1253,1720,-1,0,-1
0,1254,6540,-1,0,-1
0,1255,8040,1,0,-1
0,1256,1750,1,0,-1
0,1257,4800,-1,0,-1
0,1258,7510,-1,0,-1
0,1259,3560,1,0,-1
0,1260,1820,-1,0,-1
0,1261,3140,-1,0,-1
0,1262,1050,1,0,-1
0,1263,1960,-1,0,-1
0,1264,5070,-1,0,-1
0,1265,2250,-1,0,-1
0,1266,16670,-1,0,-1
0,1267,17060,1,0,-1
0,1268,1990,-1,0,-1
0,1269,2110,-1,0,-1
0,1270,5130,-1,0,-1
0,1271,6340,1,0,-1
0,1272,400,-1,0,-1
0,1273,2620,1,0,-1
0,1274,14570,1,0,-1
0,1275,2380,-1,0,-1
0,1276,3250,-1,0,-1
0,1277,2990,1,0,-1
0,1278,3620,-1,0,-1
0,1279,4300,-1,0,-1
0,1280,1780,-1,0,-1
0,1281,7620,1,0,-1
0,1282,520,1,0,-1
0,1283,3450,1,0,-1
0,1284,12400,-1,0,-1
0,1285,6460,-1,0,-1
0,1286,4590,1,0,-1
0,1287,4400,-1,0,-1
0,1288,6080,-1,0,-1
0,1289,8640,-1,0,-1
0,1290,8410,-1,0,-1
0,1291,3110,-1,0,-1
0,1292,1880,-1,0,-1
0,1293,2130,-1,0,-1
0,1294,2310,-1,0,-1
0,1295,1610,-1,0,-1
0,1296,1140,-1,0,-1
0,1297,4660,1,0,-1
0,1298,4110,-1,0,-1
0,1299,1870,-1,0,-1
0,1300,1410,-1,0,-1
0,1301,1580,1,0,-1
0,1302,4780,-1,0,-1
0,1303,2110,1,0,-1
0,1304,1390,-1,0,-1
0,1305,1100,-1,0,-1
0,1306,2300,1,0,-1
0,1307,3790,1,0,-1
0,1308,7810,1,0,-1
0,1309,4700,1,0,-1
0,1310,2380,1,0,-1
0,1311,2290,-1,0,-1
0,1312,2740,1,0,-1
0,1313,3800,-1,0,-1
0,1314,6720,-1,0,-1
0,1315,4440,-1,0,-1
0,1316,3780,-1,0,-1
0,1317,5270,-1,0,-1
0,1318,1730,1,0,-1
0,1319,2090,-1,0,-1
0,1320,9800,-1,0,-1
0,1321,860,-1,0,-1
0,1322,3240,-1,0,-1
0,1323,1750,1,0,-1
0,1324,6850,1,0,-1
0,1325,1770,-1,0,-1
0,1326,3270,-1,0,-1
0,1327,6230,-1,0,-1
0,1328,6880,1,0,-1
0,1329,3860,1,0,-1
0,1330,15920,1,0,-1
0,1331,3080,1,0,-1
0,1332,9390,-1,0,-1
0,1333,5860,1,0,-1
0,1334,3490,1,0,-1
0,1335,7350,-1,0,-1
0,1336,4010,-1,0,-1
0,1337,880,-1,0,-1
0,1338,1870,-1,0,-1
0,1339,3310,1,0,-1
0,1340,2970,-1,0,-1
0,1341,3830,-1,0,-1
0,1342,2330,1,0,-1
0,1343,4380,-1,0,-1
0,1344,3130,-1,0,-1
0,1345,5090,1,0,-1
0,1346,2440,1,0,-1
0,1347,3290,-1,0,-1
0,1348,2180,-1,0,-1
0,1349,2220,-1,0,-1
0,1350,5950,1,0,-1
0,1351,6090,-1,0,-1
0,1352,690,-1,0,-1
0,1353,2640,-1,0,-1
0,1354,1040,1,0,-1
0,1355,6440,-1,0,-1
0,1356,1010,-1,0,-1
0,1357,3990,1,0,-1
0,1358,5420,1,0,-1
0,1359,3320,1,0,-1
0,1360,1600,-1,0,-1
0,1361,4950,1,0,-1
0,1362,3550,-1,0,-1
0,1363,1200,-1,0,-1
0,1364,6850,-1,0,-1
0,1365,2210,1,0,-1
0,1366,2770,-1,0,-1
0,1367,4660,-1,0,-1
0,1368,9440,-1,0,-1
0,1369,11450,1,0,-1
0,1370,4940,1,0,-1
0,1371,1100,-1,0,-1
0,1372,1570,1,0,-1
0,1373,980,-1,0,-1
0,1374,4180,1,0,-1
0,1375,5000,1,0,-1
0,1376,2720,-1,0,-1
0,1377,520,-1,0,-1
0,1378,4710,-1,0,-1
0,1379,1190,1,0,-1
0,1380,980,1,0,-1
0,1381,1780,1,0,-1
0,1382,2950,-1,0,-1
0,1383,7430,-1,0,-1
0,1384,7740,-1,0,-1
0,1385,1440,1,0,-1
0,1386,4880,-1,0,-1
0,1387,10780,-1,0,-1
0,1388,1150,1,0,-1
0,1389,4870,1,0,-1
0,1390,1000,1,0,-1
0,1391,6320,-1,0,-1
0,1392,5370,-1,0,-1
0,1393,1600,-1,0,-1
0,1394,6680,1,0,-1
0,1395,3930,1,0,-1
0,1396,1360,1,0,-1
0,1397,14840,-1,0,-1
0,1398,2590,-1,0,-1
0,1399,5850,-1,0,-1
0,1400,5440,-1,0,-1
0,1401,2780,-1,0,-1
0,1402,1310,-1,0,-1
0,1403,3530,-1,0,-1
0,1404,4220,-1,0,-1
0,1405,7270,-1,0,-1
0,1406,860,-1,0,-1
0,1407,3250,1,0,-1
0,1408,11620,-1,0,-1
0,1409,6870,-1,0,-1
0,1410,1690,1,0,-1
0,1411,3410,-1,0,-1
0,1412,10810,-1,0,-1
0,1413,6200,-1,0,-1
0,1414,7660,1,0,-1
0,1415,2160,1,0,-1
0,1416,11690,-1,0,-1
0,1417,17770,-1,0,-1
0,1418,4280,-1,0,-1
0,1419,1200,1,0,-1
0,1420,2090,-1,0,-1
0,1421,4220,-1,0,-1
0,1422,2840,-1,0,-1
0,1423,4480,1,0,-1
0,1424,1960,1,0,-1
0,1425,6710,-1,0,-1
0,1426,2780,-1,0,-1
0,1427,1790,-1,0,-1
0,1428,6840,-1,0,-1
0,1429,3430,-1,0,-1
0,1430,6630,-1,0,-1
0,1431,9290,-1,0,-1
0,1432,4050,-1,0,-1
0,1433,8750,-1,0,-1
0,1434,2980,-1,0,-1
0,1435,7080,-1,0,-1
0,1436,4470,1,0,-1
0,1437,3350,-1,0,-1
0,1438,4390,-1,0,-1
0,1439,1430,-1,0,-1
0,1440,7790,1,0,-1
0,1441,7860,-1,0,-1
0,1442,3150,-1,0,-1
0,1443,760,1,0,-1
0,1444,2290,1,0,-1
0,1445,6690,-1,0,-1
0,1446,4480,-1,0,-1
0,1447,2090,-1,0,-1
0,1448,5730,-1,0,-1
0,1449,4120,-1,0,-1
0,1450,1200,-1,0,-1
0,1451,1410,-1,0,-1
0,1452,3980,-1,0,-1
0,1453,1950,-1,0,-1
0,1454,3010,-1,0,-1
0,1455,3450,-1,0,-1
0,1456,2220,-1,0,-1
0,1457,3160,1,0,-1
0,1458,3200,-1,0,-1
0,1459,2910,-1,0,-1
0,1460,8490,-1,0,-1
0,1461,3270,-1,0,-1
0,1462,2130,-1,0,-1
0,1463,2760,1,0,-1
0,1464,6890,-1,0,-1
0,1465,7970,-1,0,-1
0,1466,12370,1,0,-1
0,1467,1650,1,0,-1
0,1468,2050,1,0,-1
0,1469,1370,-1,0,-1
0,1470,5540,1,0,-1
0,1471,12620,-1,0,-1
0,1472,8300,-1,0,-1
0,1473,7070,-1,0,-1
0,1474,5650,1,0,-1
0,1475,1760,1,0,-1
0,1476,1330,1,0,-1
0,1477,2120,-1,0,-1
0,1478,3760,1,0,-1
0,1479,1320,1,0,-1
0,1480,4200,-1,0,-1
0,1481,960,1,0,-1
0,1482,3190,-1,0,-1
0,1483,5380,-1,0,-1
0,1484,930,-1,0,-1
0,1485,2500,1,0,-1
0,1486,7320,1,0,-1
0,1487,3970,-1,0,-1
0,1488,8580,-1,0,-1
0,1489,12060,-1,0,-1
0,1490,2210,-1,0,-1
0,1491,1760,-1,0,-1
0,1492,5400,-1,0,-1
0,1493,3840,-1,0,-1
0,1494,1740,-1,0,-1
0,1495,9000,1,0,-1
0,1496,3600,-1,0,-1
0,1497,6750,-1,0,-1
0,1498,1470,-1,0,-1
0,1499,1670,-1,0,-1
0,1500,5270,1,0,-1
0,1501,9560,-1,0,-1
0,1502,3670,-1,0,-1
0,1503,5110,-1,0,-1
0,1504,4690,-1,0,-1
0,1505,8490,1,0,-1
0,1506,4290,1,0,-1
0,1507,8740,1,0,-1
0,1508,1450,-1,0,-1
0,1509,4760,1,0,-1
0,1510,1090,1,0,-1
0,1511,3130,1,0,-1
0,1512,500,1,0,-1
0,1513,1170,-1,0,-1
0,1514,7810,-1,0,-1
0,1515,5210,-1,0,-1
0,1516,2040,-1,0,-1
0,1517,1950,-1,0,-1
0,1518,4360,-1,0,-1
0,1519,7440,1,0,-1
0,1520,6920,-1,0,-1
0,1521,4770,-1,0,-1
0,1522,2910,-1,0,-1
0,1523,1160,-1,0,-1
0,1524,1740,-1,0,-1
0,1525,11980,-1,0,-1
0,1526,3370,-1,0,-1
0,1527,6800,-1,0,-1
0,1528,11320,-1,0,-1
0,1529,4390,-1,0,-1
0,1530,3920,1,0,-1
0,1531,1640,-1,0,-1
0,1532,5940,-1,0,-1
0,1533,2520,1,0,-1
0,1534,10980,-1,0,-1
0,1535,6980,-1,0,-1
0,1536,2390,-1,0,-1
0,1537,7220,1,0,-1
0,1538,5250,1,0,-1
0,1539,13210,1,0,-1
0,1540,16070,-1,0,-1
0,1541,750,1,0,-1
0,1542,1060,-1,0,-1
0,1543,1530,-1,0,-1
0,1544,10150,1,0,-1
0,1545,2380,-1,0,-1
0,1546,1580,1,0,-1
0,1547,5650,-1,0,-1
0,1548,2270,-1,0,-1
0,1549,8450,-1,0,-1
0,1550,2770,1,0,-1
0,1551,6240,1,0,-1
0,1552,2490,-1,0,-1
0,1553,2090,-1,0,-1
0,1554,1460,-1,0,-1
0,1555,1130,1,0,-1
0,1556,3080,-1,0,-1
0,1557,6910,-1,0,-1
0,1558,5030,-1,0,-1
0,1559,13420,1,0,-1
0,1560,4090,-1,0,-1
0,1561,13320,-1,0,-1
0,1562,2250,-1,0,-1
0,1563,1490,-1,0,-1
0,1564,6590,-1,0,-1
0,1565,7510,-1,0,-1
0,1566,4420,1,0,-1
0,1567,4090,-1,0,-1
0,1568,2210,1,0,-1
0,1569,9620,1,0,-1
0,1570,1340,-1,0,-1
0,1571,2040,-1,0,-1
0,1572,6980,-1,0,-1
0,1573,7600,-1,0,-1
0,1574,4070,-1,0,-1
0,1575,3730,-1,0,-1
0,1576,2750,-1,0,-1
0,1577,7460,-1,0,-1
0,1578,4330,-1,0,-1
0,1579,4650,-1,0,-1
0,1580,900,1,0,-1
0,1581,5810,-1,0,-1
0,1582,5280,-1,0,-1
0,1583,1050,1,0,-1
0,1584,7300,1,0,-1
0,1585,7430,1,0,-1
0,1586,6170,-1,0,-1
0,1587,4910,-1,0,-1
0,1588,1140,-1,0,-1
0,1589,3060,-1,0,-1
0,1590,5530,-1,0,-1
0,1591,3100,1,0,-1
0,1592,5220,-1,0,-1
0,1593,2330,-1,0,-1
0,1594,8030,-1,0,-1
0,1595,8470,-1,0,-1
0,1596,4750,-1,0,-1
0,1597,4630,-1,0,-1
0,1598,1990,1,0,-1
0,1599,3060,1,0,-1
0,1600,4050,1,-1,-1
0,1601,1110,-1,-1,-1
0,1602,3780,-1,-1,-1
0,1603,9060,1,-1,-1
0,1604,670,1,-1,-1
0,1605,3540,1,-1,-1
0,1606,2400,1,-1,-1
0,1607,2510,-1,-1,-1
0,1608,3280,-1,-1,-1
0,1609,2210,-1,-1,-1
0,1610,1390,-1,-1,-1
0,1611,3740,1,-1,-1
0,1612,7360,1,-1,-1
0,1613,780,1,-1,-1
0,1614,5820,1,-1,-1
0,1615,420,-1,-1,-1
0,1616,4740,-1,-1,-1
0,1617,8300,-1,-1,-1
0,1618,1270,1,-1,-1
0,1619,10990,-1,-1,-1
0,1620,2810,1,-1,-1
0,1621,9050,-1,-1,-1
0,1622,1780,-1,-1,-1
0,1623,4610,1,-1,-1
0,1624,3250,1,-1,-1
0,1625,7270,1,-1,-1
0,1626,5850,1,-1,-1
0,1627,2890,1,-1,-1
0,1628,1210,-1,-1,-1
0,1629,520,1,-1,-1
0,1630,1140,1,-1,-1
0,1631,2050,1,-1,-1
0,1632,9100,1,-1,-1
0,1633,4210,1,-1,-1
0,1634,1170,1,-1,-1
0,1635,1500,-1,-1,-1
0,1636,3400,-1,-1,-1
0,1637,4470,1,-1,-1
0,1638,19400,1,-1,-1
0,1639,4080,-1,-1,-1
0,1640,9410,1,-1,-1
0,1641,5410,1,-1,-1
0,1642,2070,1,-1,-1
0,1643,1670,1,-1,-1
0,1644,3740,-1,-1,-1
0,1645,3910,-1,-1,-1
0,1646,3360,1,-1,-1
0,1647,4160,1,-1,-1
0,1648,3670,1,-1,-1
0,1649,4200,1,-1,-1
0,1650,6520,-1,-1,-1
0,1651,1460,-1,-1,-1
0,1652,4390,-1,-1,-1
0,1653,850,1,-1,-1
0,1654,10220,1,-1,-1
0,1655,720,-1,-1,-1
0,1656,5410,-1,-1,-1
0,1657,1610,1,-1,-1
0,1658,6230,-1,-1,-1
0,1659,2060,-1,-1,-1
0,1660,1910,-1,-1,-1
0,1661,6190,1,-1,-1
0,1662,2610,-1,-1,-1
0,1663,720,1,-1,-1
0,1664,2150,-1,-1,-1
0,1665,12130,-1,-1,-1
0,1666,1720,1,-1,-1
0,1667,4410,-1,-1,-1
0,1668,5580,1,-1,-1
0,1669,4920,-1,-1,-1
0,1670,810,1,-1,-1
0,1671,7040,1,-1,-1
0,1672,1070,1,-1,-1
0,1673,8500,1,-1,-1
0,1674,1510,-1,-1,-1
0,1675,4660,-1,-1,-1
0,1676,4910,1,-1,-1
0,1677,8140,-1,-1,-1
0,1678,7790,-1,-1,-1
0,1679,7260,1,-1,-1
0,1680,2090,-1,-1,-1
0,1681,2460,1,-1,-1
0,1682,2190,-1,-1,-1
0,1683,2770,1,-1,-1
0,1684,1950,1,-1,-1
0,1685,1040,1,-1,-1
0,1686,1510,1,-1,-1
0,1687,9580,1,-1,-1
0,1688,4960,1,-1,-1
0,1689,620,-1,-1,-1
0,1690,3460,-1,-1,-1
0,1691,3280,-1,-1,-1
0,1692,6720,-1,-1,-1
0,1693,1900,1,-1,-1
0,1694,3510,1,-1,-1
0,1695,3250,1,-1,-1
0,1696,2330,-1,-1,-1
0,1697,1090,1,-1,-1
0,1698,3010,1,-1,-1
0,1699,2460,1,-1,-1
0,1700,3030,-1,-1,-1
0,1701,3240,-1,-1,-1
0,1702,1650,1,-1,-1
0,1703,3360,-1,-1,-1
0,1704,3960,1,-1,-1
0,1705,3220,1,-1,-1
0,1706,6920,1,-1,-1
0,1707,420,1,-1,-1
0,1708,5880,1,-1,-1
0,1709,2270,-1,-1,-1
0,1710,7250,1,-1,-1
0,1711,2010,1,-1,-1
0,1712,15970,1,-1,-1
0,1713,2240,1,-1,-1
0,1714,6480,1,-1,-1
0,1715,6680,1,-1,-1
0,1716,3550,1,-1,-1
0,1717,5270,1,-1,-1
0,1718,6790,1,-1,-1
0,1719,6230,1,-1,-1
0,1720,2790,1,-1,-1
0,1721,2790,-1,-1,-1
0,1722,6560,1,-1,-1
0,1723,3940,-1,-1,-1
0,1724,4680,-1,-1,-1
0,1725,1160,1,-1,-1
0,1726,2500,1,-1,-1
0,1727,2710,1,-1,-1
0,1728,2210,1,-1,-1
0,1729,5940,1,-1,-1
0,1730,2790,1,-1,-1
0,1731,4320,1,-1,-1
0,1732,2970,1,-1,-1
0,1733,970,1,-1,-1
0,1734,7370,1,-1,-1
0,1735,620,1,-1,-1
0,1736,6320,-1,-1,-1
0,1737,9150,-1,-1,-1
0,1738,3540,1,-1,-1
0,1739,1980,1,-1,-1
0,1740,2120,1,-1,-1
0,1741,2690,-1,-1,-1
0,1742,11930,-1,-1,-1
0,1743,2220,1,-1,-1
0,1744,2150,1,-1,-1
0,1745,9720,1,-1,-1
0,1746,3300,1,-1,-1
0,1747,12920,1,-1,-1
0,1748,14080,-1,-1,-1
0,1749,11110,-1,-1,-1
0,1750,3900,1,-1,-1
0,1751,3450,1,-1,-1
0,1752,5240,1,-1,-1
0,1753,1090,1,-1,-1
0,1754,4180,1,-1,-1
0,1755,1250,-1,-1,-1
0,1756,6970,1,-1,-1
0,1757,4070,1,-1,-1
0,1758,1730,1,-1,-1
0,1759,5680,1,-1,-1
0,1760,4020,1,-1,-1
0,1761,7620,1,-1,-1
0,1762,3490,-1,-1,-1
0,1763,4710,1,-1,-1
0,1764,5660,1,-1,-1
0,1765,2730,1,-1,-1
0,1766,13000,1,-1,-1
0,1767,2250,1,-1,-1
0,1768,2530,-1,-1,-1
0,1769,3180,-1,-1,-1
0,1770,2390,-1,-1,-1
0,1771,1860,-1,-1,-1
0,1772,6060,1,-1,-1
0,1773,4590,-1,-1,-1
0,1774,5770,1,-1,-1
0,1775,2250,1,-1,-1
0,1776,4180,1,-1,-1
0,1777,6210,1,-1,-1
0,1778,340,1,-1,-1
0,1779,490,1,-1,-1
0,1780,780,1,-1,-1
0,1781,14750,1,-1,-1
0,1782,510,1,-1,-1
0,1783,5100,-1,-1,-1
0,1784,3100,1,-1,-1
0,1785,2530,-1,-1,-1
0,1786,10710,1,-1,-1
0,1787,1190,1,-1,-1
0,1788,1630,1,-1,-1
0,1789,16580,1,-1,-1
0,1790,520,1,-1,-1
0,1791,5490,1,-1,-1
0,1792,2470,1,-1,-1
0,1793,2020,1,-1,-1
0,1794,8140,1,-1,-1
0,1795,1690,1,-1,-1
0,1796,2690,1,-1,-1
0,1797,2340,-1,-1,-1
0,1798,4960,-1,-1,-1
0,1799,5280,1,-1,-1
0,1800,7860,1,-1,-1
0,1801,1030,1,-1,-1
0,1802,5070,-1,-1,-1
0,1803,1070,1,-1,-1
0,1804,3250,1,-1,-1
0,1805,2840,1,-1,-1
0,1806,15990,1,-1,-1
0,1807,11040,1,-1,-1
0,1808,1600,1,-1,-1
0,1809,5830,-1,-1,-1
0,1810,3230,1,-1,-1
0,1811,780,1,-1,-1
0,1812,1410,-1,-1,-1
0,1813,5760,1,-1,-1
0,1814,2800,1,-1,-1
0,1815,3200,1,-1,-1
0,1816,2910,1,-1,-1
0,1817,2740,-1,-1,-1
0,1818,3690,1,-1,-1
0,1819,1820,1,-1,-1
0,1820,4110,1,-1,-1
0,1821,2580,-1,-1,-1
0,1822,5740,-1,-1,-1
0,1823,6530,1,-1,-1
0,1824,1740,1,-1,-1
0,1825,1030,1,-1,-1
0,1826,890,1,-1,-1
0,1827,8050,1,-1,-1
0,1828,4180,1,-1,-1
0,1829,2920,1,-1,-1
0,1830,590,1,-1,-1
0,1831,1210,1,-1,-1
0,1832,1160,1,-1,-1
0,1833,2440,1,-1,-1
0,1834,8540,1,-1,-1
0,1835,1720,1,-1,-1
0,1836,4710,1,-1,-1
0,1837,2060,-1,-1,-1
0,1838,1520,-1,-1,-1
0,1839,1390,1,-1,-1
0,1840,1300,-1,-1,-1
0,1841,2440,1,-1,-1
0,1842,3520,1,-1,-1
0,1843,1700,1,-1,-1
0,1844,9830,1,-1,-1
0,1845,6780,-1,-1,-1
0,1846,5230,-1,-1,-1
0,1847,2920,1,-1,-1
0,1848,4590,1,-1,-1
0,1849,6560,-1,-1,-1
0,1850,2070,-1,-1,-1
0,1851,780,1,-1,-1
0,1852,2400,1,-1,-1
0,1853,5740,-1,-1,-1
0,1854,2270,1,-1,-1
0,1855,10090,1,-1,-1
0,1856,3800,-1,-1,-1
0,1857,9090,-1,-1,-1
0,1858,5590,1,-1,-1
0,1859,1770,-1,-1,-1
0,1860,2470,1,-1,-1
0,1861,3810,1,-1,-1
0,1862,5820,1,-1,-1
0,1863,1700,1,-1,-1
0,1864,2630,1,-1,-1
0,1865,3250,1,-1,-1
0,1866,860,1,-1,-1
0,1867,1780,1,-1,-1
0,1868,1020,1,-1,-1
0,1869,940,1,-1,-1
0,1870,4550,1,-1,-1
0,1871,5310,1,-1,-1
0,1872,3890,1,-1,-1
0,1873,14590,1,-1,-1
0,1874,7300,1,-1,-1
0,1875,850,1,-1,-1
0,1876,3290,1,-1,-1
0,1877,2330,1,-1,-1
0,1878,7500,1,-1,-1
0,1879,6760,1,-1,-1
0,1880,7150,-1,-1,-1
0,1881,5100,1,-1,-1
0,1882,860,1,-1,-1
0,1883,1870,1,-1,-1
0,1884,5450,1,-1,-1
0,1885,10460,1,-1,-1
0,1886,810,1,-1,-1
0,1887,730,1,-1,-1
0,1888,2630,1,-1,-1
0,1889,4090,1,-1,-1
0,1890,1760,1,-1,-1
0,1891,2200,1,-1,-1
0,1892,6510,1,-1,-1
0,1893,950,-1,-1,-1
0,1894,1100,1,-1,-1
0,1895,2770,1,-1,-1
0,1896,1210,1,-1,-1
0,1897,860,1,-1,-1
0,1898,2120,1,-1,-1
0,1899,2740,1,-1,-1
0,1900,1610,1,-1,-1
0,1901,3980,1,-1,-1
0,1902,2030,1,-1,-1
0,1903,5860,1,-1,-1
0,1904,1170,1,-1,-1
0,1905,980,1,-1,-1
0,1906,640,1,-1,-1
0,1907,4820,1,-1,-1
0,1908,11000,-1,-1,-1
0,1909,550,1,-1,-1
0,1910,1180,1,-1,-1
0,1911,1170,1,-1,-1
0,1912,4370,-1,-1,-1
0,1913,7110,1,-1,-1
0,1914,2200,-1,-1,-1
0,1915,670,1,-1,-1
0,1916,4120,-1,-1,-1
0,1917,2550,1,-1,-1
0,1918,4530,1,-1,-1
0,1919,4050,-1,-1,-1
0,1920,4320,1,-1,-1
0,1921,990,1,-1,-1
0,1922,1550,1,-1,-1
0,1923,1740,1,-1,-1
0,1924,610,1,-1,-1
0,1925,1520,-1,-1,-1
0,1926,1090,1,-1,-1
0,1927,820,1,-1,-1
0,1928,5140,1,-1,-1
0,1929,8790,1,-1,-1
0,1930,2080,1,-1,-1
0,1931,4480,-1,-1,-1
0,1932,1380,1,-1,-1
0,1933,2390,1,-1,-1
0,1934,1980,-1,-1,-1
0,1935,8810,-1,-1,-1
0,1936,4070,1,-1,-1
0,1937,1460,1,-1,-1
0,1938,1880,1,-1,-1
0,1939,1020,1,-1,-1
0,1940,1960,1,-1,-1
0,1941,9710,-1,-1,-1
0,1942,2480,1,-1,-1
0,1943,5130,1,-1,-1
0,1944,760,1,-1,-1
0,1945,1770,-1,-1,-1
0,1946,2380,-1,-1,-1
0,1947,2360,-1,-1,-1
0,1948,4480,-1,-1,-1
0,1949,1260,1,-1,-1
0,1950,1820,-1,-1,-1
0,1951,590,1,-1,-1
0,1952,1520,-1,-1,-1
0,1953,11920,1,-1,-1
0,1954,1190,-1,-1,-1
0,1955,1180,1,-1,-1
0,1956,4070,1,-1,-1
0,1957,4590,-1,-1,-1
0,1958,5530,1,-1,-1
0,1959,1340,-1,-1,-1
0,1960,2070,-1,-1,-1
0,1961,2010,1,-1,-1
0,1962,7090,1,-1,-1
0,1963,1460,-1,-1,-1
0,1964,380,1,-1,-1
0,1965,510,1,-1,-1
0,1966,4810,-1,-1,-1
0,1967,7040,-1,-1,-1
0,1968,1620,1,-1,-1
0,1969,1640,-1,-1,-1
0,1970,890,1,-1,-1
0,1971,1950,1,-1,-1
0,1972,3580,-1,-1,-1
0,1973,5700,1,-1,-1
0,1974,13940,-1,-1,-1
0,1975,3880,1,-1,-1
0,1976,1380,1,-1,-1
0,1977,1080,1,-1,-1
0,1978,3840,-1,-1,-1
0,1979,2920,1,-1,-1
0,1980,2720,1,-1,-1
0,1981,1980,-1,-1,-1
0,1982,3650,1,-1,-1
0,1983,1400,1,-1,-1
0,1984,1140,1,-1,-1
0,1985,3360,1,-1,-1
0,1986,5880,1,-1,-1
0,1987,6140,1,-1,-1
0,1988,3130,1,-1,-1
0,1989,3450,1,-1,-1
0,1990,4900,-1,-1,-1
0,1991,2390,-1,-1,-1
0,1992,8840,-1,-1,-1
0,1993,1530,1,-1,-1
0,1994,1290,-1,-1,-1
0,1995,1000,1,-1,-1
0,1996,5680,1,-1,-1
0,1997,2660,-1,-1,-1
0,1998,950,1,-1,-1
0,1999,4350,1,-1,-1
0,2000,2570,1,1,1
0,2001,6170,1,1,1
0,2002,2900,1,1,1
0,2003,5060,-1,1,1
0,2004,2810,1,1,1
0,2005,1990,-1,1,1
0,2006,5490,1,1,1
0,2007,1130,1,1,1
0,2008,7160,1,1,1
0,2009,1830,1,1,1
0,2010,3280,1,1,1
0,2011,2960,-1,1,1
0,2012,1180,1,1,1
0,2013,1430,-1,1,1
0,2014,1710,1,1,1
0,2015,3660,1,1,1
0,2016,6260,1,1,1
0,2017,14860,1,1,1
0,2018,7460,-1,1,1
0,2019,1820,1,1,1
0,2020,1320,-1,1,1
0,2021,820,-1,1,1
0,2022,2720,-1,1,1
0,2023,3490,1,1,1
0,2024,9970,1,1,1
0,2025,1190,1,1,1
0,2026,12810,-1,1,1
0,2027,1540,-1,1,1
0,2028,1370,1,1,1
0,2029,4050,-1,1,1
0,2030,3570,1,1,1
0,2031,4290,1,1,1
0,2032,2630,-1,1,1
0,2033,1650,1,1,1
0,2034,2690,-1,1,1
0,2035,1110,-1,1,1
0,2036,580,-1,1,1
0,2037,1320,-1,1,1
0,2038,4950,-1,1,1
0,2039,4590,-1,1,1
0,2040,5330,1,1,1
0,2041,1610,1,1,1
0,2042,9820,1,1,1
0,2043,4200,1,1,1
0,2044,3280,-1,1,1
0,2045,3750,-1,1,1
0,2046,1360,-1,1,1
0,2047,3060,1,1,1
0,2048,2630,1,1,1
0,2049,880,1,1,1
0,2050,5500,-1,1,1
0,2051,4550,1,1,1
0,2052,5820,-1,1,1
0,2053,5990,-1,1,1
0,2054,2090,-1,1,1
0,2055,3730,-1,1,1
0,2056,6520,-1,1,1
0,2057,1870,1,1,1
0,2058,4070,-1,1,1
0,2059,4140,-1,1,1
0,2060,1090,-1,1,1
0,2061,7350,1,1,1
0,2062,3950,1,1,1
0,2063,1210,1,1,1
0,2064,5090,1,1,1
0,2065,6650,-1,1,1
0,2066,9060,1,1,1
0,2067,2250,1,1,1
0,2068,6610,1,1,1
0,2069,1730,1,1,1
0,2070,4620,-1,1,1
0,2071,5830,-1,1,1
0,2072,3430,1,1,1
0,2073,3900,1,1,1
0,2074,5420,-1,1,1
0,2075,10630,1,1,1
0,2076,3290,-1,1,1
0,2077,2600,1,1,1
0,2078,2350,1,1,1
0,2079,440,1,1,1
0,2080,2910,-1,1,1
0,2081,4390,1,1,1
0,2082,2620,1,1,1
0,2083,11620,-1,1,1
0,2084,1260,1,1,1
0,2085,4790,-1,1,1
0,2086,3490,1,1,1
0,2087,6640,-1,1,1
0,2088,7740,1,1,1
0,2089,2040,1,1,1
0,2090,7430,1,1,1
0,2091,6290,-1,1,1
0,2092,10850,-1,1,1
0,2093,880,-1,1,1
0,2094,5190,-1,1,1
0,2095,1800,-1,1,1
0,2096,7860,-1,1,1
0,2097,4750,1,1,1
0,2098,2810,-1,1,1
0,2099,1620,1,1,1
0,2100,890,-1,1,1
0,2101,2100,-1,1,1
0,2102,8220,1,1,1
0,2103,1410,1,1,1
0,2104,5570,-1,1,1
0,2105,7710,1,1,1
0,2106,2890,-1,1,1
0,2107,2460,-1,1,1
0,2108,4200,1,1,1
0,2109,4850,1,1,1
0,2110,1280,-1,1,1
0,2111,2020,1,1,1
0,2112,2930,-1,1,1
0,2113,2970,-1,1,1
0,2114,4010,1,1,1
0,2115,9930,1,1,1
0,2116,4130,-1,1,1
0,2117,7490,-1,1,1
0,2118,2370,1,1,1
0,2119,3290,-1,1,1
0,2120,1530,1,1,1
0,2121,3350,1,1,1
0,2122,4390,-1,1,1
0,2123,1440,1,1,1
0,2124,5190,-1,1,1
0,2125,1410,1,1,1
0,2126,660,1,1,1
0,2127,2890,1,1,1
0,2128,4660,1,1,1
0,2129,700,1,1,1
0,2130,2310,1,1,1
0,2131,410,-1,1,1
0,2132,1650,1,1,1
0,2133,720,1,1,1
0,2134,9150,-1,1,1
0,2135,1510,-1,1,1
0,2136,1150,-1,1,1
0,2137,4960,-1,1,1
0,2138,8830,1,1,1
0,2139,13670,1,1,1
0,2140,3750,-1,1,1
0,2141,2630,1,1,1
0,2142,3540,1,1,1
0,2143,2390,-1,1,1
0,2144,7570,1,1,1
0,2145,2240,-1,1,1
0,2146,1820,-1,1,1
0,2147,1140,1,1,1
0,2148,1250,1,1,1
0,2149,5140,-1,1,1
0,2150,3190,1,1,1
0,2151,2390,-1,1,1
0,2152,1260,1,1,1
0,2153,2570,-1,1,1
0,2154,6310,1,1,1
0,2155,8000,-1,1,1
0,2156,3240,-1,1,1
0,2157,1890,1,1,1
0,2158,3430,-1,1,1
0,2159,9760,1,1,1
0,2160,9000,-1,1,1
0,2161,850,1,1,1
0,2162,5910,-1,1,1
0,2163,3380,-1,1,1
0,2164,7530,1,1,1
0,2165,2100,1,1,1
0,2166,1950,-1,1,1
0,2167,7660,-1,1,1
0,2168,2590,1,1,1
0,2169,2400,-1,1,1
0,2170,7880,1,1,1
0,2171,930,-1,1,1
0,2172,3030,1,1,1
0,2173,1430,-1,1,1
0,2174,6230,-1,1,1
0,2175,12130,1,1,1
0,2176,8290,1,1,1
0,2177,3550,1,1,1
0,2178,1370,-1,1,1
0,2179,1400,1,1,1
0,2180,3380,-1,1,1
0,2181,12440,1,1,1
0,2182,6210,1,1,1
0,2183,3090,-1,1,1
0,2184,1370,1,1,1
0,2185,4460,-1,1,1
0,2186,20810,1,1,1
0,2187,8610,1,1,1
0,2188,6520,1,1,1
0,2189,7650,-1,1,1
0,2190,11890,-1,1,1
0,2191,2140,1,1,1
0,2192,3990,1,1,1
0,2193,5690,-1,1,1
0,2194,1790,1,1,1
0,2195,1680,-1,1,1
0,2196,4510,1,1,1
0,2197,3690,1,1,1
0,2198,2180,-1,1,1
0,2199,7620,1,1,1
0,2200,3750,1,1,1
0,2201,5430,1,1,1
0,2202,5440,-1,1,1
0,2203,1110,1,1,1
0,2204,1930,1,1,1
0,2205,860,-1,1,1
0,2206,5600,1,1,1
0,2207,2460,-1,1,1
0,2208,10170,-1,1,1
0,2209,18030,1,1,1
0,2210,2440,-1,1,1
0,2211,3570,1,1,1
0,2212,3490,-1,1,1
0,2213,5180,-1,1,1
0,2214,1060,-1,1,1
0,2215,4960,1,1,1
0,2216,1690,-1,1,1
0,2217,10660,1,1,1
0,2218,1000,-1,1,1
0,2219,1370,1,1,1
0,2220,10220,1,1,1
0,2221,8020,-1,1,1
0,2222,1460,1,1,1
0,2223,2000,-1,1,1
0,2224,490,1,1,1
0,2225,7930,1,1,1
0,2226,9360,1,1,1
0,2227,3660,1,1,1
0,2228,5940,-1,1,1
0,2229,8200,1,1,1
0,2230,10040,-1,1,1
0,2231,2120,-1,1,1
0,2232,3570,-1,1,1
0,2233,5110,-1,1,1
0,2234,2240,1,1,1
0,2235,5080,1,1,1
0,2236,8650,1,1,1
0,2237,2020,-1,1,1
0,2238,2260,1,1,1
0,2239,1100,1,1,1
0,2240,2980,-1,1,1
0,2241,970,1,1,1
0,2242,720,-1,1,1
0,2243,3240,-1,1,1
0,2244,2080,-1,1,1
0,2245,9780,1,1,1
0,2246,8490,1,1,1
0,2247,2150,-1,1,1
0,2248,2440,-1,1,1
0,2249,3970,-1,1,1
0,2250,1170,-1,1,1
0,2251,2930,1,1,1
0,2252,1140,1,1,1
0,2253,5780,-1,1,1
0,2254,6270,-1,1,1
0,2255,2560,1,1,1
0,2256,2590,-1,1,1
0,2257,1820,1,1,1
0,2258,4230,1,1,1
0,2259,680,1,1,1
0,2260,8450,-1,1,1
0,2261,8210,1,1,1
0,2262,950,1,1,1
0,2263,1090,-1,1,1
0,2264,2320,-1,1,1
0,2265,7120,1,1,1
0,2266,5720,1,1,1
0,2267,1950,-1,1,1
0,2268,4130,1,1,1
0,2269,18030,-1,1,1
0,2270,8650,1,1,1
0,2271,10290,-1,1,1
0,2272,9200,1,1,1
0,2273,1150,1,1,1
0,2274,12480,1,1,1
0,2275,2700,-1,1,1
0,2276,3490,1,1,1
0,2277,1460,-1,1,1
0,2278,8900,1,1,1
0,2279,6030,1,1,1
0,2280,10590,1,1,1
0,2281,6740,-1,1,1
0,2282,7430,1,1,1
0,2283,3310,-1,1,1
0,2284,12320,1,1,1
0,2285,3860,1,1,1
0,2286,4340,-1,1,1
0,2287,9180,-1,1,1
0,2288,3170,1,1,1
0,2289,3200,-1,1,1
0,2290,7370,1,1,1
0,2291,2340,1,1,1
0,2292,2870,1,1,1
0,2293,3790,1,1,1
0,2294,8180,-1,1,1
0,2295,4820,1,1,1
0,2296,1500,1,1,1
0,2297,1400,1,1,1
0,2298,1900,1,1,1
0,2299,1310,-1,1,1
0,2300,2590,-1,1,1
0,2301,13170,-1,1,1
0,2302,880,1,1,1
0,2303,5900,-1,1,1
0,2304,5240,1,1,1
0,2305,4040,1,1,1
0,2306,4010,1,1,1
0,2307,2230,-1,1,1
0,2308,2620,-1,1,1
0,2309,12580,-1,1,1
0,2310,3240,1,1,1
0,2311,2380,1,1,1
0,2312,5000,1,1,1
0,2313,1260,1,1,1
0,2314,3400,-1,1,1
0,2315,1930,1,1,1
0,2316,5090,-1,1,1
0,2317,1410,1,1,1
0,2318,2510,1,1,1
0,2319,2460,1,1,1
0,2320,2240,1,1,1
0,2321,6460,-1,1,1
0,2322,1490,-1,1,1
0,2323,1260,1,1,1
0,2324,860,-1,1,1
0,2325,6680,1,1,1
0,2326,860,-1,1,1
0,2327,10050,1,1,1
0,2328,930,1,1,1
0,2329,3350,1,1,1
0,2330,2840,1,1,1
0,2331,1820,1,1,1
0,2332,1660,1,1,1
0,2333,3070,1,1,1
0,2334,2050,1,1,1
0,2335,2500,1,1,1
0,2336,2230,-1,1,1
0,2337,750,-1,1,1
0,2338,4150,-1,1,1
0,2339,5380,1,1,1
0,2340,3830,-1,1,1
0,2341,490,-1,1,1
0,2342,16830,1,1,1
0,2343,1730,1,1,1
0,2344,1940,1,1,1
0,2345,4260,-1,1,1
0,2346,3850,1,1,1
0,2347,3200,-1,1,1
0,2348,4550,1,1,1
0,2349,1030,-1,1,1
0,2350,3760,1,1,1
0,2351,2660,1,1,1
0,2352,1700,-1,1,1
0,2353,1200,-1,1,1
0,2354,5220,1,1,1
0,2355,1370,-1,1,1
0,2356,6230,-1,1,1
0,2357,660,-1,1,1
0,2358,4920,1,1,1
0,2359,1620,1,1,1
0,2360,4600,-1,1,1
0,2361,2730,1,1,1
0,2362,1820,1,1,1
0,2363,5930,1,1,1
0,2364,5490,1,1,1
0,2365,5610,1,1,1
0,2366,6810,-1,1,1
0,2367,2200,-1,1,1
0,2368,6820,1,1,1
0,2369,2450,-1,1,1
0,2370,690,-1,1,1
0,2371,6820,1,1,1
0,2372,4170,-1,1,1
0,2373,4090,1,1,1
0,2374,5900,-1,1,1
0,2375,5440,1,1,1
0,2376,6840,-1,1,1
0,2377,1480,-1,1,1
0,2378,24430,-1,1,1
0,2379,1170,-1,1,1
0,2380,4060,-1,1,1
0,2381,1170,-1,1,1
0,2382,2400,1,1,1
0,2383,1350,-1,1,1
0,2384,1160,-1,1,1
0,2385,6760,1,1,1
0,2386,1400,1,1,1
0,2387,1090,1,1,1
0,2388,990,1,1,1
0,2389,3430,1,1,1
0,2390,10480,-1,1,1
0,2391,4300,1,1,1
0,2392,2500,1,1,1
0,2393,8440,1,1,1
0,2394,13400,-1,1,1
0,2395,2030,-1,1,1
0,2396,5690,-1,1,1
0,2397,17840,-1,1,1
0,2398,4240,1,1,1
0,2399,510,1,1,1
0,2400,4670,-1,0,0
0,2401,1740,1,0,0
0,2402,10920,1,0,0
0,2403,720,1,0,0
0,2404,4560,1,0,0
0,2405,5830,1,0,0
0,2406,13570,-1,0,0
0,2407,2370,1,0,0
0,2408,3690,-1,0,0
0,2409,4660,-1,0,0
0,2410,1360,-1,0,0
0,2411,3750,1,0,0
0,2412,7770,-1,0,0
0,2413,2640,-1,0,0
0,2414,5500,1,0,0
0,2415,3590,1,0,0
0,2416,5670,1,0,0
0,2417,3710,-1,0,0
0,2418,1360,1,0,0
0,2419,17290,1,0,0
0,2420,5070,1,0,0
0,2421,2950,1,0,0
0,2422,1470,-1,0,0
0,2423,1100,1,0,0
0,2424,23580,1,0,0
0,2425,4340,1,0,0
0,2426,3040,1,0,0
0,2427,3560,1,0,0
0,2428,6340,1,0,0
0,2429,2700,1,0,0
0,2430,4090,-1,0,0
0,2431,6120,1,0,0
0,2432,2290,1,0,0
0,2433,3010,-1,0,0
0,2434,8570,1,0,0
0,2435,5380,-1,0,0
0,2436,6680,-1,0,0
0,2437,1620,1,0,0
0,2438,6880,1,0,0
0,2439,12360,1,0,0
0,2440,7440,-1,0,0
0,2441,2210,1,0,0
0,2442,7090,1,0,0
0,2443,10370,-1,0,0
0,2444,12290,-1,0,0
0,2445,720,1,0,0
0,2446,4740,1,0,0
0,2447,10850,1,0,0
0,2448,2010,-1,0,0
0,2449,1450,-1,0,0
0,2450,8520,-1,0,0
0,2451,3240,1,0,0
0,2452,650,-1,0,0
0,2453,11920,-1,0,0
0,2454,2930,-1,0,0
0,2455,2760,1,0,0
0,2456,7920,-1,0,0
0,2457,5630,1,0,0
0,2458,4230,-1,0,0
0,2459,10630,1,0,0
0,2460,4180,-1,0,0
0,2461,2250,-1,0,0
0,2462,1690,-1,0,0
0,2463,6320,-1,0,0
0,2464,6770,-1,0,0
0,2465,1540,1,0,0
0,2466,15340,-1,0,0
0,2467,6960,1,0,0
0,2468,2800,-1,0,0
0,2469,3490,-1,0,0
0,2470,2510,-1,0,0
0,2471,2280,1,0,0
0,2472,1220,-1,0,0
0,2473,11810,-1,0,0
0,2474,2470,-1,0,0
0,2475,3700,1,0,0
0,2476,1070,-1,0,0
0,2477,1400,1,0,0
0,2478,2600,1,0,0
0,2479,1210,-1,0,0
0,2480,3570,1,0,0
0,2481,950,-1,0,0
0,2482,6360,1,0,0
0,2483,2560,1,0,0
0,2484,1010,1,0,0
0,2485,3660,1,0,0
0,2486,17680,1,0,0
0,2487,7530,-1,0,0
0,2488,560,-1,0,0
0,2489,4640,-1,0,0
0,2490,1430,-1,0,0
0,2491,6950,-1,0,0
0,2492,1020,-1,0,0
0,2493,5820,1,0,0
0,2494,3700,-1,0,0
0,2495,1390,-1,0,0
0,2496,460,1,0,0
0,2497,3520,1,0,0
0,2498,1860,1,0,0
0,2499,1260,-1,0,0
0,2500,9720,1,0,0
0,2501,1200,-1,0,0
0,2502,5840,1,0,0
0,2503,7860,1,0,0
0,2504,1290,-1,0,0
0,2505,1160,-1,0,0
0,2506,3240,1,0,0
0,2507,1570,1,0,0
0,2508,4460,-1,0,0
0,2509,8720,-1,0,0
0,2510,1220,1,0,0
0,2511,5060,-1,0,0
0,2512,3240,1,0,0
0,2513,420,1,0,0
0,2514,3180,1,0,0
0,2515,1660,-1,0,0
0,2516,1570,-1,0,0
0,2517,8290,1,0,0
0,2518,2640,1,0,0
0,2519,1910,1,0,0
0,2520,1570,1,0,0
0,2521,1040,1,0,0
0,2522,1440,1,0,0
0,2523,17850,-1,0,0
0,2524,960,1,0,0
0,2525,5650,-1,0,0
0,2526,1530,1,0,0
0,2527,2790,1,0,0
0,2528,1080,1,0,0
0,2529,1570,1,0,0
0,2530,2310,-1,0,0
0,2531,3440,-1,0,0
0,2532,3700,1,0,0
0,2533,3900,1,0,0
0,2534,12000,-1,0,0
0,2535,1910,1,0,0
0,2536,7470,-1,0,0
0,2537,2480,-1,0,0
0,2538,3260,1,0,0
0,2539,6110,1,0,0
0,2540,3930,-1,0,0
0,2541,3520,-1,0,0
0,2542,8770,1,0,0
0,2543,2610,-1,0,0
0,2544,620,1,0,0
0,2545,6670,1,0,0
0,2546,3590,1,0,0
0,2547,7090,-1,0,0
0,2548,5760,1,0,0
0,2549,1730,-1,0,0
0,2550,2890,1,0,0
0,2551,4540,1,0,0
0,2552,4290,-1,0,0
0,2553,910,-1,0,0
0,2554,670,-1,0,0
0,2555,7870,1,0,0
0,2556,5160,1,0,0
0,2557,2200,1,0,0
0,2558,3500,-1,0,0
0,2559,3160,1,0,0
0,2560,1790,-1,0,0
0,2561,3960,-1,0,0
0,2562,4870,1,0,0
0,2563,3180,1,0,0
0,2564,4120,1,0,0
0,2565,1880,1,0,0
0,2566,2300,1,0,0
0,2567,2720,-1,0,0
0,2568,3870,-1,0,0
0,2569,8370,1,0,0
0,2570,11450,-1,0,0
0,2571,3600,1,0,0
0,2572,2600,1,0,0
0,2573,2740,1,0,0
0,2574,850,1,0,0
0,2575,7130,1,0,0
0,2576,970,1,0,0
0,2577,3750,1,0,0
0,2578,4520,-1,0,0
0,2579,3790,-1,0,0
0,2580,1020,-1,0,0
0,2581,1020,1,0,0
0,2582,2030,-1,0,0
0,2583,9250,1,0,0
0,2584,13170,-1,0,0
0,2585,6020,1,0,0
0,2586,6730,1,0,0
0,2587,3480,1,0,0
0,2588,2680,-1,0,0
0,2589,3180,1,0,0
0,2590,2500,-1,0,0
0,2591,5160,-1,0,0
0,2592,2980,-1,0,0
0,2593,1760,-1,0,0
0,2594,1830,-1,0,0
0,2595,6390,1,0,0
0,2596,780,1,0,0
0,2597,4170,-1,0,0
0,2598,6360,-1,0,0
0,2599,2870,1,0,0
0,2600,1160,-1,0,0
0,2601,1170,-1,0,0
0,2602,1190,1,0,0
0,2603,2530,1,0,0
0,2604,6580,1,0,0
0,2605,3360,-1,0,0
0,2606,6250,1,0,0
0,2607,1950,1,0,0
0,2608,2290,1,0,0
0,2609,1610,-1,0,0
0,2610,4570,1,0,0
0,2611,830,1,0,0
0,2612,2070,-1,0,0
0,2613,2690,-1,0,0
0,2614,3420,-1,0,0
0,2615,1710,-1,0,0
0,2616,5260,1,0,0
0,2617,5100,-1,0,0
0,2618,2400,1,0,0
0,2619,1180,1,0,0
0,2620,6640,1,0,0
0,2621,1480,1,0,0
0,2622,510,1,0,0
0,2623,890,-1,0,0
0,2624,2260,-1,0,0
0,2625,10280,-1,0,0
0,2626,23940,1,0,0
0,2627,850,1,0,0
0,2628,10420,-1,0,0
0,2629,1470,-1,0,0
0,2630,3320,1,0,0
0,2631,4740,-1,0,0
0,2632,6020,-1,0,0
0,2633,6000,1,0,0
0,2634,4130,1,0,0
0,2635,3230,-1,0,0
0,2636,3800,-1,0,0
0,2637,2240,-1,0,0
0,2638,4820,1,0,0
0,2639,1490,-1,0,0
0,2640,1980,-1,0,0
0,2641,3660,1,0,0
0,2642,6940,1,0,0
0,2643,1670,1,0,0
0,2644,3060,-1,0,0
0,2645,3720,1,0,0
0,2646,3370,1,0,0
0,2647,2180,1,0,0
0,2648,11600,-1,0,0
0,2649,1880,-1,0,0
0,2650,1180,-1,0,0
0,2651,14430,-1,0,0
0,2652,1760,1,0,0
0,2653,3280,1,0,0
0,2654,1370,1,0,0
0,2655,3420,-1,0,0
0,2656,5850,-1,0,0
0,2657,6040,1,0,0
0,2658,1720,1,0,0
0,2659,1640,1,0,0
0,2660,14800,-1,0,0
0,2661,9050,1,0,0
0,2662,940,1,0,0
0,2663,3470,-1,0,0
0,2664,1620,1,0,0
0,2665,6910,1,0,0
0,2666,1130,-1,0,0
0,2667,1150,-1,0,0
0,2668,3970,-1,0,0
0,2669,4150,-1,0,0
0,2670,9230,1,0,0
0,2671,1770,-1,0,0
0,2672,3510,1,0,0
0,2673,3150,-1,0,0
0,2674,6190,1,0,0
0,2675,4370,1,0,0
0,2676,1760,1,0,0
0,2677,1520,1,0,0
0,2678,26780,-1,0,0
0,2679,3790,1,0,0
0,2680,5890,-1,0,0
0,2681,1180,1,0,0
0,2682,9990,1,0,0
0,2683,3850,1,0,0
0,2684,1880,-1,0,0
0,2685,1550,-1,0,0
0,2686,2580,1,0,0
0,2687,1290,1,0,0
0,2688,770,1,0,0
0,2689,3520,1,0,0
0,2690,1760,1,0,0
0,2691,10620,-1,0,0
0,2692,390,1,0,0
0,2693,4470,1,0,0
0,2694,5690,-1,0,0
0,2695,7300,1,0,0
0,2696,1920,1,0,0
0,2697,3060,-1,0,0
0,2698,3430,1,0,0
0,2699,1000,-1,0,0
0,2700,3610,1,0,0
0,2701,5790,-1,0,0
0,2702,690,-1,0,0
0,2703,1570,-1,0,0
0,2704,10510,-1,0,0
0,2705,2470,1,0,0
0,2706,9190,-1,0,0
0,2707,1490,-1,0,0
0,2708,1970,-1,0,0
0,2709,9360,1,0,0
0,2710,1510,1,0,0
0,2711,3790,-1,0,0
0,2712,4880,1,0,0
0,2713,1410,1,0,0
0,2714,1330,1,0,0
0,2715,2520,1,0,0
0,2716,2990,1,0,0
0,2717,2420,1,0,0
0,2718,4470,1,0,0
0,2719,5480,-1,0,0
0,2720,3240,1,0,0
0,2721,15120,1,0,0
0,2722,4080,1,0,0
0,2723,2420,1,0,0
0,2724,1090,1,0,0
0,2725,640,-1,0,0
0,2726,3390,1,0,0
0,2727,6500,-1,0,0
0,2728,1360,1,0,0
0,2729,2680,1,0,0
0,2730,2460,1,0,0
0,2731,1230,1,0,0
0,2732,3300,1,0,0
0,2733,5990,1,0,0
0,2734,510,1,0,0
0,2735,670,-1,0,0
0,2736,8290,-1,0,0
0,2737,8190,-1,0,0
0,2738,7430,-1,0,0
0,2739,3930,-1,0,0
0,2740,2100,1,0,0
0,2741,7150,-1,0,0
0,2742,2780,-1,0,0
0,2743,3080,1,0,0
0,2744,3670,1,0,0
0,2745,3770,-1,0,0
0,2746,1020,1,0,0
0,2747,2640,-1,0,0
0,2748,4400,-1,0,0
0,2749,2410,1,0,0
0,2750,2370,-1,0,0
0,2751,1840,-1,0,0
0,2752,6450,1,0,0
0,2753,1600,-1,0,0
0,2754,1420,1,0,0
0,2755,2570,1,0,0
0,2756,3000,1,0,0
0,2757,6350,1,0,0
0,2758,8050,-1,0,0
0,2759,9810,1,0,0
0,2760,1240,-1,0,0
0,2761,3190,-1,0,0
0,2762,1160,-1,0,0
0,2763,3000,-1,0,0
0,2764,11480,1,0,0
0,2765,1160,-1,0,0
0,2766,5030,1,0,0
0,2767,1380,1,0,0
0,2768,2500,-1,0,0
0,2769,11410,1,0,0
0,2770,1570,1,0,0
0,2771,10380,-1,0,0
0,2772,4920,-1,0,0
0,2773,1470,1,0,0
0,2774,3500,1,0,0
0,2775,940,1,0,0
0,2776,1080,1,0,0
0,2777,2990,1,0,0
0,2778,2030,-1,0,0
0,2779,3850,-1,0,0
0,2780,4450,-1,0,0
0,2781,2690,-1,0,0
0,2782,1300,1,0,0
0,2783,4460,1,0,0
0,2784,1230,-1,0,0
0,2785,6150,1,0,0
0,2786,1120,1,0,0
0,2787,4320,-1,0,0
0,2788,3090,-1,0,0
0,2789,2360,-1,0,0
0,2790,1640,-1,0,0
0,2791,4420,-1,0,0
0,2792,3300,1,0,0
0,2793,1500,-1,0,0
0,2794,2320,1,0,0
0,2795,670,-1,0,0
0,2796,640,-1,0,0
0,2797,3660,1,0,0
0,2798,4630,-1,0,0
0,2799,5740,1,0,0
0,2800,4160,-1,1,0
0,2801,1440,-1,1,0
0,2802,8520,-1,1,0
0,2803,1740,-1,1,0
0,2804,1260,-1,1,0
0,2805,11450,-1,1,0
0,2806,1810,-1,1,0
0,2807,2040,-1,1,0
0,2808,1390,-1,1,0
0,2809,3310,-1,1,0
0,2810,760,-1,1,0
0,2811,2340,-1,1,0
0,2812,1900,1,1,0
0,2813,400,-1,1,0
0,2814,1640,-1,1,0
0,2815,2320,-1,1,0
0,2816,1000,-1,1,0
0,2817,12670,-1,1,0
0,2818,2650,1,1,0
0,2819,2680,-1,1,0
0,2820,4570,-1,1,0
0,2821,10770,-1,1,0
0,2822,1780,1,1,0
0,2823,4040,-1,1,0
0,2824,3690,-1,1,0
0,2825,4560,-1,1,0
0,2826,830,1,1,0
0,2827,6730,1,1,0
0,2828,1750,1,1,0
0,2829,2140,-1,1,0
0,2830,1010,-1,1,0
0,2831,2470,-1,1,0
0,2832,1030,-1,1,0
0,2833,6180,-1,1,0
0,2834,4580,-1,1,0
0,2835,2080,-1,1,0
0,2836,13150,-1,1,0
0,2837,2510,-1,1,0
0,2838,3900,-1,1,0
0,2839,1810,-1,1,0
0,2840,2750,-1,1,0
0,2841,5020,-1,1,0
0,2842,6720,1,1,0
0,2843,3180,-1,1,0
0,2844,3720,-1,1,0
0,2845,1880,-1,1,0
0,2846,4610,-1,1,0
0,2847,2450,1,1,0
0,2848,810,-1,1,0
0,2849,1110,-1,1,0
0,2850,6760,-1,1,0
0,2851,7480,-1,1,0
0,2852,2220,1,1,0
0,2853,1910,-1,1,0
0,2854,2760,1,1,0
0,2855,5950,-1,1,0
0,2856,3040,-1,1,0
0,2857,1620,-1,1,0
0,2858,5710,-1,1,0
0,2859,2420,-1,1,0
0,2860,3520,1,1,0
0,2861,7470,-1,1,0
0,2862,5470,-1,1,0
0,2863,3890,1,1,0
0,2864,2170,-1,1,0
0,2865,3120,1,1,0
0,2866,930,-1,1,0
0,2867,3990,-1,1,0
0,2868,4800,-1,1,0
0,2869,7550,-1,1,0
0,2870,3140,-1,1,0
0,2871,4390,1,1,0
0,2872,8040,-1,1,0
0,2873,1050,-1,1,0
0,2874,1500,1,1,0
0,2875,5820,1,1,0
0,2876,2120,-1,1,0
0,2877,3610,-1,1,0
0,2878,1980,-1,1,0
0,2879,6180,-1,1,0
0,2880,1230,-1,1,0
0,2881,5250,1,1,0
0,2882,6280,-1,1,0
0,2883,2160,-1,1,0
0,2884,3940,-1,1,0
0,2885,3960,-1,1,0
0,2886,520,-1,1,0
0,2887,1140,-1,1,0
0,2888,6400,1,1,0
0,2889,6880,-1,1,0
0,2890,1400,-1,1,0
0,2891,1090,-1,1,0
0,2892,3090,-1,1,0
0,2893,2310,-1,1,0
0,2894,950,-1,1,0
0,2895,550,-1,1,0
0,2896,840,-1,1,0
0,2897,1900,-1,1,0
0,2898,1140,-1,1,0
0,2899,5560,-1,1,0
0,2900,2820,-1,1,0
0,2901,1820,-1,1,0
0,2902,2730,-1,1,0
0,2903,2490,-1,1,0
0,2904,6050,1,1,0
0,2905,2760,-1,1,0
0,2906,4710,-1,1,0
0,2907,1870,-1,1,0
0,2908,2580,-1,1,0
0,2909,5660,-1,1,0
0,2910,2390,-1,1,0
0,2911,13820,-1,1,0
0,2912,4900,-1,1,0
0,2913,6120,-1,1,0
0,2914,1520,1,1,0
0,2915,2180,1,1,0
0,2916,880,-1,1,0
0,2917,980,-1,1,0
0,2918,1610,-1,1,0
0,2919,1770,-1,1,0
0,2920,2060,1,1,0
0,2921,2510,-1,1,0
0,2922,830,-1,1,0
0,2923,2590,-1,1,0
0,2924,1060,-1,1,0
0,2925,640,-1,1,0
0,2926,2620,-1,1,0
0,2927,3940,-1,1,0
0,2928,420,-1,1,0
0,2929,5730,-1,1,0
0,2930,1960,1,1,0
0,2931,7480,-1,1,0
0,2932,1200,-1,1,0
0,2933,4940,-1,1,0
0,2934,2850,1,1,0
0,2935,5620,-1,1,0
0,2936,8770,-1,1,0
0,2937,8780,-1,1,0
0,2938,5700,-1,1,0
0,2939,500,-1,1,0
0,2940,1500,-1,1,0
0,2941,2810,-1,1,0
0,2942,970,1,1,0
0,2943,820,-1,1,0
0,2944,3290,1,1,0
0,2945,9050,-1,1,0
0,2946,2630,-1,1,0
0,2947,10320,-1,1,0
0,2948,1860,-1,1,0
0,2949,1390,1,1,0
0,2950,5470,-1,1,0
0,2951,6460,-1,1,0
0,2952,4140,-1,1,0
0,2953,2390,-1,1,0
0,2954,5810,-1,1,0
0,2955,2210,-1,1,0
0,2956,710,-1,1,0
0,2957,1250,-1,1,0
0,2958,3720,-1,1,0
0,2959,1890,-1,1,0
0,2960,810,-1,1,0
0,2961,830,-1,1,0
0,2962,980,-1,1,0
0,2963,2770,-1,1,0
0,2964,5050,1,1,0
0,2965,2470,-1,1,0
0,2966,2100,-1,1,0
0,2967,1130,-1,1,0
0,2968,1350,-1,1,0
0,2969,5110,-1,1,0
0,2970,2360,-1,1,0
0,2971,860,-1,1,0
0,2972,540,-1,1,0
0,2973,2330,-1,1,0
0,2974,3380,-1,1,0
0,2975,550,-1,1,0
0,2976,2650,-1,1,0
0,2977,3540,-1,1,0
0,2978,2390,-1,1,0
0,2979,1400,-1,1,0
0,2980,4210,-1,1,0
0,2981,5450,-1,1,0
0,2982,17560,1,1,0
0,2983,5590,-1,1,0
0,2984,4750,-1,1,0
0,2985,3090,-1,1,0
0,2986,1910,-1,1,0
0,2987,1480,-1,1,0
0,2988,2850,1,1,0
0,2989,12640,-1,1,0
0,2990,1520,-1,1,0
0,2991,4350,-1,1,0
0,2992,11130,-1,1,0
0,2993,1950,-1,1,0
0,2994,7930,-1,1,0
0,2995,3250,-1,1,0
0,2996,1700,-1,1,0
0,2997,1180,-1,1,0
0,2998,3890,-1,1,0
0,2999,4350,-1,1,0
0,3000,1730,-1,1,0
0,3001,800,-1,1,0
0,3002,3060,-1,1,0
0,3003,1030,-1,1,0
0,3004,3520,-1,1,0
0,3005,1260,-1,1,0
0,3006,970,-1,1,0
0,3007,1400,-1,1,0
0,3008,6370,-1,1,0
0,3009,7450,1,1,0
0,3010,970,-1,1,0
0,3011,4550,-1,1,0
0,3012,2280,-1,1,0
0,3013,4260,-1,1,0
0,3014,1370,-1,1,0
0,3015,7230,-1,1,0
0,3016,810,-1,1,0
0,3017,5650,1,1,0
0,3018,5840,-1,1,0
0,3019,5340,-1,1,0
0,3020,1400,-1,1,0
0,3021,10460,-1,1,0
0,3022,1450,-1,1,0
0,3023,1080,-1,1,0
0,3024,1770,-1,1,0
0,3025,3870,-1,1,0
0,3026,1040,-1,1,0
0,3027,2320,-1,1,0
0,3028,3780,-1,1,0
0,3029,7630,-1,1,0
0,3030,2080,1,1,0
0,3031,940,-1,1,0
0,3032,1250,1,1,0
0,3033,13570,-1,1,0
0,3034,6980,-1,1,0
0,3035,680,-1,1,0
0,3036,2570,-1,1,0
0,3037,5230,-1,1,0
0,3038,1670,1,1,0
0,3039,890,-1,1,0
0,3040,6560,-1,1,0
0,3041,1420,-1,1,0
0,3042,3590,1,1,0
0,3043,2900,-1,1,0
0,3044,1310,-1,1,0
0,3045,2070,-1,1,0
0,3046,5190,-1,1,0
0,3047,4580,-1,1,0
0,3048,2460,1,1,0
0,3049,1890,-1,1,0
0,3050,1020,-1,1,0
0,3051,2260,1,1,0
0,3052,4480,-1,1,0
0,3053,1040,-1,1,0
0,3054,1860,-1,1,0
0,3055,6040,-1,1,0
0,3056,780,-1,1,0
0,3057,1070,-1,1,0
0,3058,3370,-1,1,0
0,3059,1320,-1,1,0
0,3060,2260,1,1,0
0,3061,2390,-1,1,0
0,3062,7820,-1,1,0
0,3063,5910,1,1,0
0,3064,900,-1,1,0
0,3065,1020,-1,1,0
0,3066,1070,-1,1,0
0,3067,6290,1,1,0
0,3068,3800,-1,1,0
0,3069,2360,-1,1,0
0,3070,2870,-1,1,0
0,3071,6360,-1,1,0
0,3072,990,-1,1,0
0,3073,4690,1,1,0
0,3074,890,-1,1,0
0,3075,1410,-1,1,0
0,3076,7480,-1,1,0
0,3077,2040,-1,1,0
0,3078,3320,-1,1,0
0,3079,6220,-1,1,0
0,3080,1450,1,1,0
0,3081,3150,-1,1,0
0,3082,910,1,1,0
0,3083,1330,-1,1,0
0,3084,11820,-1,1,0
0,3085,6750,-1,1,0
0,3086,2410,-1,1,0
0,3087,2870,-1,1,0
0,3088,740,-1,1,0
0,3089,1920,-1,1,0
0,3090,1550,1,1,0
0,3091,2860,-1,1,0
0,3092,1050,-1,1,0
0,3093,1240,-1,1,0
0,3094,4720,-1,1,0
0,3095,10300,-1,1,0
0,3096,2100,-1,1,0
0,3097,1790,1,1,0
0,3098,2490,-1,1,0
0,3099,6250,1,1,0
0,3100,6640,-1,1,0
0,3101,950,-1,1,0
0,3102,3140,-1,1,0
0,3103,1040,1,1,0
0,3104,6590,-1,1,0
0,3105,890,-1,1,0
0,3106,970,1,1,0
0,3107,5760,-1,1,0
0,3108,390,-1,1,0
0,3109,1310,-1,1,0
0,3110,670,-1,1,0
0,3111,910,-1,1,0
0,3112,910,-1,1,0
0,3113,4770,-1,1,0
0,3114,4470,-1,1,0
0,3115,2510,-1,1,0
0,3116,1810,1,1,0
0,3117,3060,-1,1,0
0,3118,2140,-1,1,0
0,3119,1890,-1,1,0
0,3120,7470,-1,1,0
0,3121,910,1,1,0
0,3122,1180,-1,1,0
0,3123,880,-1,1,0
0,3124,3520,-1,1,0
0,3125,5540,-1,1,0
0,3126,17180,-1,1,0
0,3127,8310,-1,1,0
0,3128,6020,1,1,0
0,3129,3320,-1,1,0
0,3130,4060,1,1,0
0,3131,4690,-1,1,0
0,3132,950,-1,1,0
0,3133,3030,-1,1,0
0,3134,1070,-1,1,0
0,3135,5320,-1,1,0
0,3136,4590,1,1,0
0,3137,3780,-1,1,0
0,3138,1570,-1,1,0
0,3139,5510,-1,1,0
0,3140,3160,-1,1,0
0,3141,9200,1,1,0
0,3142,1940,1,1,0
0,3143,1150,-1,1,0
0,3144,5130,1,1,0
0,3145,690,-1,1,0
0,3146,2900,-1,1,0
0,3147,2260,-1,1,0
0,3148,1540,-1,1,0
0,3149,1190,-1,1,0
0,3150,1300,-1,1,0
0,3151,7400,-1,1,0
0,3152,15590,-1,1,0
0,3153,5650,-1,1,0
0,3154,6590,-1,1,0
0,3155,3620,-1,1,0
0,3156,2890,-1,1,0
0,3157,14250,-1,1,0
0,3158,1010,-1,1,0
0,3159,7500,-1,1,0
0,3160,4040,-1,1,0
0,3161,2490,-1,1,0
0,3162,3150,-1,1,0
0,3163,2120,-1,1,0
0,3164,3210,-1,1,0
0,3165,2250,-1,1,0
0,3166,1910,-1,1,0
0,3167,6090,-1,1,0
0,3168,4300,-1,1,0
0,3169,5550,-1,1,0
0,3170,820,-1,1,0
0,3171,2700,-1,1,0
0,3172,830,-1,1,0
0,3173,5350,1,1,0
0,3174,820,-1,1,0
0,3175,3310,-1,1,0
0,3176,4880,-1,1,0
0,3177,1930,-1,1,0
0,3178,1970,-1,1,0
0,3179,2090,-1,1,0
0,3180,1570,-1,1,0
0,3181,10060,1,1,0
0,3182,4810,-1,1,0
0,3183,1290,-1,1,0
0,3184,1600,-1,1,0
0,3185,1020,-1,1,0
0,3186,3660,-1,1,0
0,3187,2480,-1,1,0
0,3188,11610,-1,1,0
0,3189,840,-1,1,0
0,3190,5290,-1,1,0
0,3191,6790,-1,1,0
0,3192,7070,1,1,0
0,3193,5100,-1,1,0
0,3194,3440,-1,1,0
0,3195,3810,-1,1,0
0,3196,5460,-1,1,0
0,3197,1750,-1,1,0
0,3198,3990,-1,1,0
0,3199,430,-1,1,0
0,3200,1760,-1,-1,-1
0,3201,5340,1,-1,-1
0,3202,2770,-1,-1,-1
0,3203,1530,-1,-1,-1
0,3204,800,1,-1,-1
0,3205,9210,1,-1,-1
0,3206,8730,-1,-1,-1
0,3207,2670,1,-1,-1
0,3208,1840,-1,-1,-1
0,3209,5380,1,-1,-1
0,3210,3400,-1,-1,-1
0,3211,3810,1,-1,-1
0,3212,1550,-1,-1,-1
0,3213,8340,1,-1,-1
0,3214,1080,-1,-1,-1
0,3215,3480,1,-1,-1
0,3216,980,1,-1,-1
0,3217,4160,-1,-1,-1
0,3218,3220,1,-1,-1
0,3219,3220,1,-1,-1
0,3220,3670,-1,-1,-1
0,3221,4150,-1,-1,-1
0,3222,2970,1,-1,-1
0,3223,3520,-1,-1,-1
0,3224,1940,-1,-1,-1
0,3225,5220,-1,-1,-1
0,3226,6680,1,-1,-1
0,3227,10650,-1,-1,-1
0,3228,3810,1,-1,-1
0,3229,2320,-1,-1,-1
0,3230,3690,1,-1,-1
0,3231,1050,1,-1,-1
0,3232,1240,1,-1,-1
0,3233,2890,-1,-1,-1
0,3234,3490,1,-1,-1
0,3235,3660,-1,-1,-1
0,3236,2430,1,-1,-1
0,3237,5900,1,-1,-1
0,3238,4220,-1,-1,-1
0,3239,2950,-1,-1,-1
0,3240,4900,1,-1,-1
0,3241,4350,-1,-1,-1
0,3242,2530,1,-1,-1
0,3243,1010,1,-1,-1
0,3244,10490,-1,-1,-1
0,3245,3640,1,-1,-1
0,3246,4220,-1,-1,-1
0,3247,5310,-1,-1,-1
0,3248,2860,-1,-1,-1
0,3249,2070,-1,-1,-1
0,3250,4540,1,-1,-1
0,3251,6530,1,-1,-1
0,3252,5220,-1,-1,-1
0,3253,2920,1,-1,-1
0,3254,3320,-1,-1,-1
0,3255,5760,-1,-1,-1
0,3256,1280,1,-1,-1
0,3257,5260,-1,-1,-1
0,3258,25970,1,-1,-1
0,3259,2570,1,-1,-1
0,3260,2440,1,-1,-1
0,3261,10540,-1,-1,-1
0,3262,9410,1,-1,-1
0,3263,960,1,-1,-1
0,3264,4240,1,-1,-1
0,3265,3080,1,-1,-1
0,3266,4130,1,-1,-1
0,3267,6840,1,-1,-1
0,3268,3600,1,-1,-1
0,3269,3460,-1,-1,-1
0,3270,1960,-1,-1,-1
0,3271,5610,1,-1,-1
0,3272,2510,1,-1,-1
0,3273,1820,1,-1,-1
0,3274,1820,1,-1,-1
0,3275,5130,1,-1,-1
0,3276,2000,-1,-1,-1
0,3277,8100,1,-1,-1
0,3278,7410,1,-1,-1
0,3279,1290,1,-1,-1
0,3280,10190,1,-1,-1
0,3281,10800,-1,-1,-1
0,3282,11390,1,-1,-1
0,3283,5410,1,-1,-1
0,3284,3160,1,-1,-1
0,3285,3750,-1,-1,-1
0,3286,6710,-1,-1,-1
0,3287,2280,1,-1,-1
0,3288,1920,-1,-1,-1
0,3289,4940,1,-1,-1
0,3290,7060,-1,-1,-1
0,3291,3930,1,-1,-1
0,3292,2570,-1,-1,-1
0,3293,4910,-1,-1,-1
0,3294,1440,-1,-1,-1
0,3295,4780,-1,-1,-1
0,3296,1360,-1,-1,-1
0,3297,7510,-1,-1,-1
0,3298,4610,1,-1,-1
0,3299,4830,-1,-1,-1
0,3300,1750,1,-1,-1
0,3301,5330,1,-1,-1
0,3302,2650,1,-1,-1
0,3303,910,1,-1,-1
0,3304,2580,-1,-1,-1
0,3305,7970,-1,-1,-1
0,3306,4160,-1,-1,-1
0,3307,5090,1,-1,-1
0,3308,3130,1,-1,-1
0,3309,3550,-1,-1,-1
0,3310,1080,1,-1,-1
0,3311,3220,1,-1,-1
0,3312,4010,1,-1,-1
0,3313,6690,-1,-1,-1
0,3314,5250,-1,-1,-1
0,3315,10750,-1,-1,-1
0,3316,2040,-1,-1,-1
0,3317,9250,1,-1,-1
0,3318,6190,-1,-1,-1
0,3319,16650,-1,-1,-1
0,3320,5730,-1,-1,-1
0,3321,4590,-1,-1,-1
0,3322,13150,1,-1,-1
0,3323,1050,1,-1,-1
0,3324,870,-1,-1,-1
0,3325,2170,-1,-1,-1
0,3326,3330,1,-1,-1
0,3327,3190,-1,-1,-1
0,3328,1070,1,-1,-1
0,3329,5290,1,-1,-1
0,3330,3200,1,-1,-1
0,3331,9560,1,-1,-1
0,3332,15140,-1,-1,-1
0,3333,3030,1,-1,-1
0,3334,790,-1,-1,-1
0,3335,1770,-1,-1,-1
0,3336,2100,-1,-1,-1
0,3337,1980,-1,-1,-1
0,3338,4720,-1,-1,-1
0,3339,9110,-1,-1,-1
0,3340,2020,-1,-1,-1
0,3341,3210,-1,-1,-1
0,3342,4220,-1,-1,-1
0,3343,3340,1,-1,-1
0,3344,5120,1,-1,-1
0,3345,1710,-1,-1,-1
0,3346,3240,1,-1,-1
0,3347,1440,1,-1,-1
0,3348,3330,-1,-1,-1
0,3349,1230,-1,-1,-1
0,3350,1650,-1,-1,-1
0,3351,7190,-1,-1,-1
0,3352,840,-1,-1,-1
0,3353,1640,-1,-1,-1
0,3354,1280,1,-1,-1
0,3355,3190,-1,-1,-1
0,3356,1170,-1,-1,-1
0,3357,6020,-1,-1,-1
0,3358,3010,-1,-1,-1
0,3359,2240,1,-1,-1
0,3360,2210,-1,-1,-1
0,3361,2410,-1,-1,-1
0,3362,8720,-1,-1,-1
0,3363,2910,-1,-1,-1
0,3364,8520,1,-1,-1
0,3365,3430,-1,-1,-1
0,3366,2250,-1,-1,-1
0,3367,7050,-1,-1,-1
0,3368,8460,-1,-1,-1
0,3369,2690,1,-1,-1
0,3370,4370,1,-1,-1
0,3371,750,1,-1,-1
0,3372,1120,1,-1,-1
0,3373,650,1,-1,-1
0,3374,940,-1,-1,-1
0,3375,5540,1,-1,-1
0,3376,3450,-1,-1,-1
0,3377,23570,-1,-1,-1
0,3378,1460,-1,-1,-1
0,3379,5100,-1,-1,-1
0,3380,6620,1,-1,-1
0,3381,3540,-1,-1,-1
0,3382,1750,-1,-1,-1
0,3383,670,1,-1,-1
0,3384,2000,1,-1,-1
0,3385,1510,1,-1,-1
0,3386,4190,-1,-1,-1
0,3387,1000,1,-1,-1
0,3388,4750,1,-1,-1
0,3389,2710,-1,-1,-1
0,3390,900,1,-1,-1
0,3391,7850,-1,-1,-1
0,3392,1550,1,-1,-1
0,3393,9110,-1,-1,-1
0,3394,780,-1,-1,-1
0,3395,13590,-1,-1,-1
0,3396,570,1,-1,-1
0,3397,2990,-1,-1,-1
0,3398,2800,1,-1,-1
0,3399,3180,1,-1,-1
0,3400,1480,1,-1,-1
0,3401,1740,1,-1,-1
0,3402,440,-1,-1,-1
0,3403,1730,-1,-1,-1
0,3404,9170,-1,-1,-1
0,3405,2320,1,-1,-1
0,3406,7030,-1,-1,-1
0,3407,2670,-1,-1,-1
0,3408,9710,-1,-1,-1
0,3409,8490,1,-1,-1
0,3410,4330,-1,-1,-1
0,3411,3500,1,-1,-1
0,3412,1150,1,-1,-1
0,3413,6120,-1,-1,-1
0,3414,14410,1,-1,-1
0,3415,4030,-1,-1,-1
0,3416,7100,1,-1,-1
0,3417,930,-1,-1,-1
0,3418,11460,-1,-1,-1
0,3419,4330,1,-1,-1
0,3420,4520,1,-1,-1
0,3421,8220,-1,-1,-1
0,3422,6920,1,-1,-1
0,3423,670,-1,-1,-1
0,3424,3050,1,-1,-1
0,3425,2010,1,-1,-1
0,3426,4470,-1,-1,-1
0,3427,810,-1,-1,-1
0,3428,1450,1,-1,-1
0,3429,730,1,-1,-1
0,3430,2010,1,-1,-1
0,3431,2800,-1,-1,-1
0,3432,1370,1,-1,-1
0,3433,940,-1,-1,-1
0,3434,5940,1,-1,-1
0,3435,8670,1,-1,-1
0,3436,11040,1,-1,-1
0,3437,2350,-1,-1,-1
0,3438,3290,1,-1,-1
0,3439,3330,-1,-1,-1
0,3440,3430,-1,-1,-1
0,3441,5510,-1,-1,-1
0,3442,2700,1,-1,-1
0,3443,2730,1,-1,-1
0,3444,910,1,-1,-1
0,3445,1440,1,-1,-1
0,3446,2990,1,-1,-1
0,3447,790,-1,-1,-1
0,3448,1680,1,-1,-1
0,3449,6230,-1,-1,-1
0,3450,2160,-1,-1,-1
0,3451,7730,1,-1,-1
0,3452,1240,1,-1,-1
0,3453,2790,1,-1,-1
0,3454,1820,1,-1,-1
0,3455,5050,1,-1,-1
0,3456,2160,-1,-1,-1
0,3457,2240,1,-1,-1
0,3458,4150,-1,-1,-1
0,3459,3420,1,-1,-1
0,3460,5760,-1,-1,-1
0,3461,6610,-1,-1,-1
0,3462,7590,-1,-1,-1
0,3463,4270,-1,-1,-1
0,3464,7150,-1,-1,-1
0,3465,9690,-1,-1,-1
0,3466,5390,1,-1,-1
0,3467,2140,-1,-1,-1
0,3468,2770,-1,-1,-1
0,3469,4250,-1,-1,-1
0,3470,4130,-1,-1,-1
0,3471,3530,-1,-1,-1
0,3472,5160,-1,-1,-1
0,3473,9070,1,-1,-1
0,3474,1230,1,-1,-1
0,3475,3680,1,-1,-1
0,3476,1430,-1,-1,-1
0,3477,5690,1,-1,-1
0,3478,7250,-1,-1,-1
0,3479,1780,-1,-1,-1
0,3480,14070,-1,-1,-1
0,3481,1060,1,-1,-1
0,3482,1780,1,-1,-1
0,3483,3870,-1,-1,-1
0,3484,1490,-1,-1,-1
0,3485,3520,-1,-1,-1
0,3486,3520,-1,-1,-1
0,3487,3480,1,-1,-1
0,3488,13960,1,-1,-1
0,3489,880,1,-1,-1
0,3490,1770,1,-1,-1
0,3491,6240,1,-1,-1
0,3492,3240,1,-1,-1
0,3493,3490,1,-1,-1
0,3494,5350,-1,-1,-1
0,3495,2860,-1,-1,-1
0,3496,2810,1,-1,-1
0,3497,700,1,-1,-1
0,3498,4230,-1,-1,-1
0,3499,4780,1,-1,-1
0,3500,1990,1,-1,-1
0,3501,1140,-1,-1,-1
0,3502,2140,-1,-1,-1
0,3503,1290,-1,-1,-1
0,3504,2640,1,-1,-1
0,3505,4000,-1,-1,-1
0,3506,4770,1,-1,-1
0,3507,1370,1,-1,-1
0,3508,840,1,-1,-1
0,3509,4510,-1,-1,-1
0,3510,2900,-1,-1,-1
0,3511,1100,1,-1,-1
0,3512,1040,1,-1,-1
0,3513,5830,1,-1,-1
0,3514,990,1,-1,-1
0,3515,3270,-1,-1,-1
0,3516,3500,1,-1,-1
0,3517,4130,1,-1,-1
0,3518,630,-1,-1,-1
0,3519,8260,-1,-1,-1
0,3520,1230,1,-1,-1
0,3521,2310,1,-1,-1
0,3522,1420,-1,-1,-1
0,3523,1230,-1,-1,-1
0,3524,4930,-1,-1,-1
0,3525,3020,1,-1,-1
0,3526,3420,-1,-1,-1
0,3527,8520,1,-1,-1
0,3528,1540,-1,-1,-1
0,3529,5590,1,-1,-1
0,3530,970,1,-1,-1
0,3531,1750,-1,-1,-1
0,3532,2800,-1,-1,-1
0,3533,9490,1,-1,-1
0,3534,900,-1,-1,-1
0,3535,2420,1,-1,-1
0,3536,3570,-1,-1,-1
0,3537,3390,1,-1,-1
0,3538,10300,-1,-1,-1
0,3539,3550,-1,-1,-1
0,3540,1110,1,-1,-1
0,3541,5680,-1,-1,-1
0,3542,7050,-1,-1,-1
0,3543,3790,-1,-1,-1
0,3544,720,1,-1,-1
0,3545,1790,-1,-1,-1
0,3546,6490,1,-1,-1
0,3547,8850,-1,-1,-1
0,3548,980,-1,-1,-1
0,3549,11050,1,-1,-1
0,3550,2520,-1,-1,-1
0,3551,7430,-1,-1,-1
0,3552,1680,-1,-1,-1
0,3553,4830,-1,-1,-1
0,3554,1200,-1,-1,-1
0,3555,7340,1,-1,-1
0,3556,6540,1,-1,-1
0,3557,1760,-1,-1,-1
0,3558,5080,1,-1,-1
0,3559,4840,-1,-1,-1
0,3560,5980,-1,-1,-1
0,3561,1360,1,-1,-1
0,3562,2800,1,-1,-1
0,3563,1110,1,-1,-1
0,3564,3110,-1,-1,-1
0,3565,3200,-1,-1,-1
0,3566,2600,-1,-1,-1
0,3567,3130,1,-1,-1
0,3568,3120,1,-1,-1
0,3569,5210,1,-1,-1
0,3570,7420,1,-1,-1
0,3571,2520,-1,-1,-1
0,3572,1090,1,-1,-1
0,3573,2690,-1,-1,-1
0,3574,2330,-1,-1,-1
0,3575,1230,-1,-1,-1
0,3576,1710,-1,-1,-1
0,3577,5440,-1,-1,-1
0,3578,3440,1,-1,-1
0,3579,5640,-1,-1,-1
0,3580,6370,1,-1,-1
0,3581,3090,1,-1,-1
0,3582,2250,-1,-1,-1
0,3583,5110,-1,-1,-1
0,3584,2160,-1,-1,-1
0,3585,1980,1,-1,-1
0,3586,8760,1,-1,-1
0,3587,4960,1,-1,-1
0,3588,1700,-1,-1,-1
0,3589,1460,-1,-1,-1
0,3590,2120,-1,-1,-1
0,3591,4780,-1,-1,-1
0,3592,1360,1,-1,-1
0,3593,5260,-1,-1,-1
0,3594,3730,1,-1,-1
0,3595,2290,-1,-1,-1
0,3596,8970,-1,-1,-1
0,3597,13980,-1,-1,-1
0,3598,4520,1,-1,-1
0,3599,3670,-1,-1,-1
0,3600,1480,-1,1,0
0,3601,3720,-1,1,0
0,3602,4890,1,1,0
0,3603,1130,1,1,0
0,3604,600,1,1,0
0,3605,2510,-1,1,0
0,3606,14670,1,1,0
0,3607,1490,1,1,0
0,3608,2130,1,1,0
0,3609,1660,-1,1,0
0,3610,3710,-1,1,0
0,3611,8040,-1,1,0
0,3612,2070,-1,1,0
0,3613,2740,-1,1,0
0,3614,1010,1,1,0
0,3615,4680,-1,1,0
0,3616,4890,-1,1,0
0,3617,4780,-1,1,0
0,3618,990,-1,1,0
0,3619,4680,1,1,0
0,3620,2850,-1,1,0
0,3621,4800,1,1,0
0,3622,1330,1,1,0
0,3623,5720,-1,1,0
0,3624,3400,-1,1,0
0,3625,9170,-1,1,0
0,3626,480,-1,1,0
0,3627,9940,-1,1,0
0,3628,1460,-1,1,0
0,3629,2360,-1,1,0
0,3630,7480,-1,1,0
0,3631,3370,-1,1,0
0,3632,5610,-1,1,0
0,3633,14830,-1,1,0
0,3634,3170,-1,1,0
0,3635,1010,1,1,0
0,3636,1530,-1,1,0
0,3637,4090,-1,1,0
0,3638,5130,-1,1,0
0,3639,1270,-1,1,0
0,3640,1700,1,1,0
0,3641,2970,-1,1,0
0,3642,6220,-1,1,0
0,3643,2710,-1,1,0
0,3644,1920,1,1,0
0,3645,3280,-1,1,0
0,3646,7670,-1,1,0
0,3647,4150,-1,1,0
0,3648,1400,1,1,0
0,3649,3150,1,1,0
0,3650,7250,-1,1,0
0,3651,3590,-1,1,0
0,3652,2860,-1,1,0
0,3653,9930,1,1,0
0,3654,2840,1,1,0
0,3655,2920,-1,1,0
0,3656,4620,-1,1,0
0,3657,2720,-1,1,0
0,3658,1140,-1,1,0
0,3659,5480,-1,1,0
0,3660,5730,-1,1,0
0,3661,2130,-1,1,0
0,3662,3330,-1,1,0
0,3663,3860,-1,1,0
0,3664,4330,-1,1,0
0,3665,1390,-1,1,0
0,3666,2200,1,1,0
0,3667,2790,-1,1,0
0,3668,5310,-1,1,0
0,3669,5220,1,1,0
0,3670,7150,-1,1,0
0,3671,6420,-1,1,0
0,3672,3210,1,1,0
0,3673,1330,1,1,0
0,3674,3040,1,1,0
0,3675,700,-1,1,0
0,3676,3290,-1,1,0
0,3677,3380,-1,1,0
0,3678,4500,-1,1,0
0,3679,1900,1,1,0
0,3680,3050,1,1,0
0,3681,5860,-1,1,0
0,3682,1250,-1,1,0
0,3683,1010,1,1,0
0,3684,1760,-1,1,0
0,3685,2000,1,1,0
0,3686,10400,-1,1,0
0,3687,13850,-1,1,0
0,3688,6610,1,1,0
0,3689,9090,-1,1,0
0,3690,770,-1,1,0
0,3691,3440,-1,1,0
0,3692,3100,-1,1,0
0,3693,5530,-1,1,0
0,3694,6910,-1,1,0
0,3695,3000,-1,1,0
0,3696,4830,-1,1,0
0,3697,9120,1,1,0
0,3698,2830,-1,1,0
0,3699,10350,-1,1,0
0,3700,2470,-1,1,0
0,3701,1490,-1,1,0
0,3702,1360,1,1,0
0,3703,1990,1,1,0
0,3704,2470,1,1,0
0,3705,1130,-1,1,0
0,3706,830,1,1,0
0,3707,5750,-1,1,0
0,3708,1420,1,1,0
0,3709,5440,-1,1,0
0,3710,5520,-1,1,0
0,3711,1390,-1,1,0
0,3712,920,-1,1,0
0,3713,1370,-1,1,0
0,3714,2950,-1,1,0
0,3715,6140,-1,1,0
0,3716,4040,-1,1,0
0,3717,2670,-1,1,0
0,3718,1370,1,1,0
0,3719,1220,-1,1,0
0,3720,1200,1,1,0
0,3721,8210,1,1,0
0,3722,4240,-1,1,0
0,3723,3290,1,1,0
0,3724,5430,-1,1,0
0,3725,3600,-1,1,0
0,3726,6390,1,1,0
0,3727,2420,-1,1,0
0,3728,2550,-1,1,0
0,3729,2680,-1,1,0
0,3730,560,1,1,0
0,3731,2160,1,1,0
0,3732,2200,-1,1,0
0,3733,910,-1,1,0
0,3734,1680,1,1,0
0,3735,3040,-1,1,0
0,3736,7730,-1,1,0
0,3737,1090,-1,1,0
0,3738,2190,-1,1,0
0,3739,7860,1,1,0
0,3740,5760,-1,1,0
0,3741,2660,-1,1,0
0,3742,990,-1,1,0
0,3743,1530,-1,1,0
0,3744,9250,1,1,0
0,3745,1970,-1,1,0
0,3746,2270,-1,1,0
0,3747,4330,-1,1,0
0,3748,1420,1,1,0
0,3749,6110,-1,1,0
0,3750,3390,-1,1,0
0,3751,1310,1,1,0
0,3752,8030,-1,1,0
0,3753,2520,-1,1,0
0,3754,480,-1,1,0
0,3755,4360,-1,1,0
0,3756,390,-1,1,0
0,3757,4160,-1,1,0
0,3758,6180,1,1,0
0,3759,730,-1,1,0
0,3760,1600,-1,1,0
0,3761,520,-1,1,0
0,3762,4150,1,1,0
0,3763,1510,-1,1,0
0,3764,5820,1,1,0
0,3765,1190,-1,1,0
0,3766,1840,-1,1,0
0,3767,7800,-1,1,0
0,3768,9740,-1,1,0
0,3769,3690,-1,1,0
0,3770,530,-1,1,0
0,3771,1680,1,1,0
0,3772,6390,-1,1,0
0,3773,3470,-1,1,0
0,3774,6710,-1,1,0
0,3775,3540,-1,1,0
0,3776,4040,-1,1,0
0,3777,2210,-1,1,0
0,3778,720,-1,1,0
0,3779,2220,-1,1,0
0,3780,1860,-1,1,0
0,3781,5220,1,1,0
0,3782,1270,-1,1,0
0,3783,3310,1,1,0
0,3784,830,-1,1,0
0,3785,5970,-1,1,0
0,3786,1550,-1,1,0
0,3787,4910,-1,1,0
0,3788,4270,-1,1,0
0,3789,9960,-1,1,0
0,3790,3820,1,1,0
0,3791,2570,-1,1,0
0,3792,2560,-1,1,0
0,3793,1110,1,1,0
0,3794,5680,-1,1,0
0,3795,1910,-1,1,0
0,3796,1040,-1,1,0
0,3797,3580,-1,1,0
0,3798,2400,-1,1,0
0,3799,890,-1,1,0
0,3800,3610,-1,1,0
0,3801,3420,-1,1,0
0,3802,2360,-1,1,0
0,3803,1030,-1,1,0
0,3804,1300,-1,1,0
0,3805,2130,-1,1,0
0,3806,950,-1,1,0
0,3807,2310,-1,1,0
0,3808,3210,-1,1,0
0,3809,1150,-1,1,0
0,3810,3250,-1,1,0
0,3811,1430,-1,1,0
0,3812,2140,1,1,0
0,3813,10250,-1,1,0
0,3814,2140,-1,1,0
0,3815,2440,1,1,0
0,3816,2620,-1,1,0
0,3817,8720,-1,1,0
0,3818,3520,-1,1,0
0,3819,3340,-1,1,0
0,3820,3310,-1,1,0
0,3821,6230,1,1,0
0,3822,3480,-1,1,0
0,3823,1810,-1,1,0
0,3824,3020,-1,1,0
0,3825,1210,1,1,0
0,3826,7680,-1,1,0
0,3827,3660,-1,1,0
0,3828,2200,1,1,0
0,3829,8820,-1,1,0
0,3830,7680,-1,1,0
0,3831,3680,-1,1,0
0,3832,5530,-1,1,0
0,3833,2690,-1,1,0
0,3834,4340,1,1,0
0,3835,1960,-1,1,0
0,3836,2930,1,1,0
0,3837,5360,1,1,0
0,3838,5850,-1,1,0
0,3839,4300,-1,1,0
0,3840,5940,-1,1,0
0,3841,2280,-1,1,0
0,3842,850,-1,1,0
0,3843,4870,-1,1,0
0,3844,2330,-1,1,0
0,3845,7930,-1,1,0
0,3846,11900,-1,1,0
0,3847,7180,-1,1,0
0,3848,3210,-1,1,0
0,3849,2050,1,1,0
0,3850,2680,-1,1,0
0,3851,10590,-1,1,0
0,3852,1600,-1,1,0
0,3853,2400,-1,1,0
0,3854,3540,-1,1,0
0,3855,590,-1,1,0
0,3856,4640,1,1,0
0,3857,7480,1,1,0
0,3858,2360,1,1,0
0,3859,1350,-1,1,0
0,3860,2810,1,1,0
0,3861,9930,-1,1,0
0,3862,4040,-1,1,0
0,3863,520,-1,1,0
0,3864,2830,-1,1,0
0,3865,790,-1,1,0
0,3866,11030,-1,1,0
0,3867,1260,1,1,0
0,3868,520,1,1,0
0,3869,1950,-1,1,0
0,3870,3790,1,1,0
0,3871,4790,-1,1,0
0,3872,1420,-1,1,0
0,3873,3580,-1,1,0
0,3874,4540,1,1,0
0,3875,1980,-1,1,0
0,3876,3670,-1,1,0
0,3877,9780,1,1,0
0,3878,670,-1,1,0
0,3879,7510,-1,1,0
0,3880,6200,1,1,0
0,3881,4170,1,1,0
0,3882,8550,1,1,0
0,3883,2430,-1,1,0
0,3884,4970,1,1,0
0,3885,2900,1,1,0
0,3886,520,-1,1,0
0,3887,4500,1,1,0
0,3888,3790,-1,1,0
0,3889,1320,-1,1,0
0,3890,4710,1,1,0
0,3891,1510,-1,1,0
0,3892,7970,-1,1,0
0,3893,3340,-1,1,0
0,3894,1830,1,1,0
0,3895,7470,1,1,0
0,3896,9690,1,1,0
0,3897,15690,-1,1,0
0,3898,740,-1,1,0
0,3899,1700,1,1,0
0,3900,9520,1,1,0
0,3901,2750,-1,1,0
0,3902,500,-1,1,0
0,3903,2230,-1,1,0
0,3904,3710,1,1,0
0,3905,3350,1,1,0
0,3906,6260,1,1,0
0,3907,800,1,1,0
0,3908,460,1,1,0
0,3909,3610,-1,1,0
0,3910,8820,-1,1,0
0,3911,1810,-1,1,0
0,3912,2240,-1,1,0
0,3913,2570,-1,1,0
0,3914,6890,-1,1,0
0,3915,770,-1,1,0
0,3916,6710,-1,1,0
0,3917,3270,1,1,0
0,3918,1100,-1,1,0
0,3919,780,-1,1,0
0,3920,1660,-1,1,0
0,3921,5000,1,1,0
0,3922,3150,-1,1,0
0,3923,2000,1,1,0
0,3924,3330,-1,1,0
0,3925,2610,1,1,0
0,3926,9250,-1,1,0
0,3927,10510,-1,1,0
0,3928,1420,-1,1,0
0,3929,1780,-1,1,0
0,3930,1560,-1,1,0
0,3931,10370,-1,1,0
0,3932,870,-1,1,0
0,3933,4230,1,1,0
0,3934,3150,-1,1,0
0,3935,1400,-1,1,0
0,3936,4170,-1,1,0
0,3937,2630,-1,1,0
0,3938,1470,1,1,0
0,3939,4020,1,1,0
0,3940,6790,-1,1,0
0,3941,5260,1,1,0
0,3942,5190,1,1,0
0,3943,1170,1,1,0
0,3944,8110,-1,1,0
0,3945,4010,1,1,0
0,3946,2890,1,1,0
0,3947,1590,1,1,0
0,3948,7110,-1,1,0
0,3949,3900,-1,1,0
0,3950,3040,-1,1,0
0,3951,2400,1,1,0
0,3952,690,1,1,0
0,3953,6740,1,1,0
0,3954,2100,-1,1,0
0,3955,5230,1,1,0
0,3956,2340,-1,1,0
0,3957,1020,-1,1,0
0,3958,1960,1,1,0
0,3959,5870,1,1,0
0,3960,2690,1,1,0
0,3961,8480,1,1,0
0,3962,1220,1,1,0
0,3963,970,1,1,0
0,3964,730,-1,1,0
0,3965,5250,1,1,0
0,3966,2460,1,1,0
0,3967,1240,-1,1,0
0,3968,8640,1,1,0
0,3969,900,-1,1,0
0,3970,830,-1,1,0
0,3971,5320,-1,1,0
0,3972,1450,-1,1,0
0,3973,5460,-1,1,0
0,3974,5010,-1,1,0
0,3975,8090,-1,1,0
0,3976,3260,1,1,0
0,3977,1710,-1,1,0
0,3978,2180,1,1,0
0,3979,1480,-1,1,0
0,3980,7400,-1,1,0
0,3981,9540,-1,1,0
0,3982,7480,1,1,0
0,3983,1350,-1,1,0
0,3984,4290,-1,1,0
0,3985,780,1,1,0
0,3986,2130,-1,1,0
0,3987,3170,1,1,0
0,3988,3920,1,1,0
0,3989,5850,-1,1,0
0,3990,1740,1,1,0
0,3991,2820,-1,1,0
0,3992,2100,-1,1,0
0,3993,6900,-1,1,0
0,3994,1730,-1,1,0
0,3995,1370,-1,1,0
0,3996,3000,-1,1,0
0,3997,5350,1,1,0
0,3998,12310,-1,1,0
0,3999,2920,-1,1,0
0,4000,2080,-1,-1,-1
0,4001,4460,-1,-1,-1
0,4002,15410,1,-1,-1
0,4003,1510,1,-1,-1
0,4004,5420,-1,-1,-1
0,4005,2480,-1,-1,-1
0,4006,920,1,-1,-1
0,4007,1630,-1,-1,-1
0,4008,830,1,-1,-1
0,4009,1000,1,-1,-1
0,4010,6410,-1,-1,-1
0,4011,10220,-1,-1,-1
0,4012,7220,-1,-1,-1
0,4013,1480,1,-1,-1
0,4014,3490,-1,-1,-1
0,4015,2500,-1,-1,-1
0,4016,2790,-1,-1,-1
0,4017,9000,1,-1,-1
0,4018,1960,1,-1,-1
0,4019,2640,1,-1,-1
0,4020,3820,1,-1,-1
0,4021,9310,-1,-1,-1
0,4022,1330,-1,-1,-1
0,4023,900,-1,-1,-1
0,4024,1970,1,-1,-1
0,4025,1180,-1,-1,-1
0,4026,3750,1,-1,-1
0,4027,12750,-1,-1,-1
0,4028,9360,-1,-1,-1
0,4029,2310,-1,-1,-1
0,4030,2010,1,-1,-1
0,4031,5220,-1,-1,-1
0,4032,2290,-1,-1,-1
0,4033,3630,-1,-1,-1
0,4034,4820,1,-1,-1
0,4035,5750,-1,-1,-1
0,4036,2470,1,-1,-1
0,4037,5440,1,-1,-1
0,4038,1250,-1,-1,-1
0,4039,2760,-1,-1,-1
0,4040,3660,1,-1,-1
0,4041,3720,-1,-1,-1
0,4042,2990,1,-1,-1
0,4043,1270,-1,-1,-1
0,4044,1820,-1,-1,-1
0,4045,770,1,-1,-1
0,4046,2170,-1,-1,-1
0,4047,1530,-1,-1,-1
0,4048,3360,1,-1,-1
0,4049,2240,-1,-1,-1
0,4050,4950,1,-1,-1
0,4051,2080,1,-1,-1
0,4052,3080,1,-1,-1
0,4053,4120,1,-1,-1
0,4054,680,1,-1,-1
0,4055,3050,1,-1,-1
0,4056,2610,1,-1,-1
0,4057,4100,1,-1,-1
0,4058,2500,1,-1,-1
0,4059,7410,1,-1,-1
0,4060,6350,1,-1,-1
0,4061,8830,1,-1,-1
0,4062,3240,1,-1,-1
0,4063,1240,1,-1,-1
0,4064,3160,1,-1,-1
0,4065,1620,-1,-1,-1
0,4066,1310,1,-1,-1
0,4067,3030,1,-1,-1
0,4068,4200,1,-1,-1
0,4069,3100,-1,-1,-1
0,4070,2600,1,-1,-1
0,4071,4760,-1,-1,-1
0,4072,2860,-1,-1,-1
0,4073,1370,1,-1,-1
0,4074,2590,1,-1,-1
0,4075,12530,1,-1,-1
0,4076,650,-1,-1,-1
0,4077,1770,-1,-1,-1
0,4078,8550,-1,-1,-1
0,4079,2860,-1,-1,-1
0,4080,1940,-1,-1,-1
0,4081,12490,1,-1,-1
0,4082,6100,1,-1,-1
0,4083,2000,-1,-1,-1
0,4084,2440,-1,-1,-1
0,4085,2480,1,-1,-1
0,4086,660,1,-1,-1
0,4087,2000,-1,-1,-1
0,4088,5940,1,-1,-1
0,4089,3240,1,-1,-1
0,4090,6990,-1,-1,-1
0,4091,2310,1,-1,-1
0,4092,2980,1,-1,-1
0,4093,640,1,-1,-1
0,4094,2670,1,-1,-1
0,4095,2430,-1,-1,-1
0,4096,4670,1,-1,-1
0,4097,700,1,-1,-1
0,4098,1080,1,-1,-1
0,4099,1940,-1,-1,-1
0,4100,1620,-1,-1,-1
0,4101,1670,-1,-1,-1
0,4102,2190,1,-1,-1
0,4103,820,-1,-1,-1
0,4104,1180,1,-1,-1
0,4105,3350,1,-1,-1
0,4106,2670,1,-1,-1
0,4107,2160,-1,-1,-1
0,4108,11250,1,-1,-1
0,4109,4030,-1,-1,-1
0,4110,5370,1,-1,-1
0,4111,1610,1,-1,-1
0,4112,900,1,-1,-1
0,4113,6700,1,-1,-1
0,4114,4170,1,-1,-1
0,4115,7440,-1,-1,-1
0,4116,2720,-1,-1,-1
0,4117,4380,1,-1,-1
0,4118,2760,1,-1,-1
0,4119,750,1,-1,-1
0,4120,3240,1,-1,-1
0,4121,2850,-1,-1,-1
0,4122,1630,-1,-1,-1
0,4123,1480,1,-1,-1
0,4124,1020,-1,-1,-1
0,4125,4810,1,-1,-1
0,4126,6640,-1,-1,-1
0,4127,6700,-1,-1,-1
0,4128,3590,-1,-1,-1
0,4129,6020,1,-1,-1
0,4130,7910,1,-1,-1
0,4131,12820,1,-1,-1
0,4132,5820,1,-1,-1
0,4133,2620,-1,-1,-1
0,4134,610,1,-1,-1
0,4135,4940,-1,-1,-1
0,4136,3570,1,-1,-1
0,4137,7270,-1,-1,-1
0,4138,8890,1,-1,-1
0,4139,2250,1,-1,-1
0,4140,2760,1,-1,-1
0,4141,6460,-1,-1,-1
0,4142,2760,1,-1,-1
0,4143,1090,1,-1,-1
0,4144,800,-1,-1,-1
0,4145,620,-1,-1,-1
0,4146,610,1,-1,-1
0,4147,2140,-1,-1,-1
0,4148,7400,-1,-1,-1
0,4149,5600,1,-1,-1
0,4150,5080,1,-1,-1
0,4151,10230,-1,-1,-1
0,4152,8680,1,-1,-1
0,4153,5630,1,-1,-1
0,4154,4380,-1,-1,-1
0,4155,5970,-1,-1,-1
0,4156,4960,1,-1,-1
0,4157,1570,-1,-1,-1
0,4158,1230,1,-1,-1
0,4159,4770,-1,-1,-1
0,4160,3520,1,-1,-1
0,4161,2600,-1,-1,-1
0,4162,22620,1,-1,-1
0,4163,2030,-1,-1,-1
0,4164,2140,1,-1,-1
0,4165,630,1,-1,-1
0,4166,2610,1,-1,-1
0,4167,3130,-1,-1,-1
0,4168,3410,1,-1,-1
0,4169,2970,1,-1,-1
0,4170,5340,1,-1,-1
0,4171,9310,1,-1,-1
0,4172,13670,-1,-1,-1
0,4173,550,-1,-1,-1
0,4174,5080,1,-1,-1
0,4175,1160,1,-1,-1
0,4176,2520,1,-1,-1
0,4177,9330,-1,-1,-1
0,4178,2160,-1,-1,-1
0,4179,480,1,-1,-1
0,4180,1270,1,-1,-1
0,4181,4410,-1,-1,-1
0,4182,1860,1,-1,-1
0,4183,11970,1,-1,-1
0,4184,5190,1,-1,-1
0,4185,3200,1,-1,-1
0,4186,6990,1,-1,-1
0,4187,3650,-1,-1,-1
0,4188,6240,1,-1,-1
0,4189,3820,1,-1,-1
0,4190,13180,-1,-1,-1
0,4191,9190,-1,-1,-1
0,4192,1730,-1,-1,-1
0,4193,2460,-1,-1,-1
0,4194,2140,1,-1,-1
0,4195,2570,-1,-1,-1
0,4196,15920,1,-1,-1
0,4197,1760,1,-1,-1
0,4198,5230,1,-1,-1
0,4199,2780,1,-1,-1
0,4200,2840,-1,-1,-1
0,4201,1390,1,-1,-1
0,4202,5370,1,-1,-1
0,4203,3500,-1,-1,-1
0,4204,2680,-1,-1,-1
0,4205,2450,1,-1,-1
0,4206,8650,1,-1,-1
0,4207,1870,1,-1,-1
0,4208,3300,1,-1,-1
0,4209,18950,-1,-1,-1
0,4210,8940,-1,-1,-1
0,4211,580,1,-1,-1
0,4212,1800,-1,-1,-1
0,4213,1250,1,-1,-1
0,4214,690,1,-1,-1
0,4215,3500,-1,-1,-1
0,4216,7770,-1,-1,-1
0,4217,4720,1,-1,-1
0,4218,2050,1,-1,-1
0,4219,4690,1,-1,-1
0,4220,5720,-1,-1,-1
0,4221,2300,1,-1,-1
0,4222,3360,-1,-1,-1
0,4223,1060,-1,-1,-1
0,4224,1110,-1,-1,-1
0,4225,2750,1,-1,-1
0,4226,1390,1,-1,-1
0,4227,1690,1,-1,-1
0,4228,3050,-1,-1,-1
0,4229,4350,-1,-1,-1
0,4230,9200,1,-1,-1
0,4231,2230,-1,-1,-1
0,4232,3970,1,-1,-1
0,4233,7220,-1,-1,-1
0,4234,8490,-1,-1,-1
0,4235,8220,-1,-1,-1
0,4236,1530,-1,-1,-1
0,4237,3660,-1,-1,-1
0,4238,620,1,-1,-1
0,4239,4330,-1,-1,-1
0,4240,1050,1,-1,-1
0,4241,3740,-1,-1,-1
0,4242,11200,-1,-1,-1
0,4243,690,-1,-1,-1
0,4244,3270,1,-1,-1
0,4245,3660,1,-1,-1
0,4246,3420,1,-1,-1
0,4247,2380,1,-1,-1
0,4248,4620,-1,-1,-1
0,4249,2150,1,-1,-1
0,4250,3930,-1,-1,-1
0,4251,7010,1,-1,-1
0,4252,700,1,-1,-1
0,4253,1920,-1,-1,-1
0,4254,7130,1,-1,-1
0,4255,7340,1,-1,-1
0,4256,8230,1,-1,-1
0,4257,7800,-1,-1,-1
0,4258,1860,-1,-1,-1
0,4259,14640,1,-1,-1
0,4260,3360,-1,-1,-1
0,4261,5580,-1,-1,-1
0,4262,5290,1,-1,-1
0,4263,5300,-1,-1,-1
0,4264,800,1,-1,-1
0,4265,9290,-1,-1,-1
0,4266,2790,1,-1,-1
0,4267,1250,-1,-1,-1
0,4268,1280,1,-1,-1
0,4269,5930,1,-1,-1
0,4270,6780,-1,-1,-1
0,4271,2750,1,-1,-1
0,4272,4140,-1,-1,-1
0,4273,460,1,-1,-1
0,4274,2930,1,-1,-1
0,4275,1980,-1,-1,-1
0,4276,2360,-1,-1,-1
0,4277,4740,1,-1,-1
0,4278,1810,-1,-1,-1
0,4279,3900,1,-1,-1
0,4280,3790,1,-1,-1
0,4281,820,1,-1,-1
0,4282,5600,-1,-1,-1
0,4283,1550,1,-1,-1
0,4284,660,1,-1,-1
0,4285,1680,-1,-1,-1
0,4286,6950,1,-1,-1
0,4287,2720,1,-1,-1
0,4288,2850,1,-1,-1
0,4289,3490,1,-1,-1
0,4290,2010,-1,-1,-1
0,4291,8020,1,-1,-1
0,4292,5640,1,-1,-1
0,4293,2590,-1,-1,-1
0,4294,3200,-1,-1,-1
0,4295,2630,1,-1,-1
0,4296,7250,1,-1,-1
0,4297,4470,-1,-1,-1
0,4298,1530,1,-1,-1
0,4299,11550,1,-1,-1
0,4300,3720,1,-1,-1
0,4301,5700,-1,-1,-1
0,4302,2520,1,-1,-1
0,4303,4460,1,-1,-1
0,4304,2030,1,-1,-1
0,4305,3840,1,-1,-1
0,4306,1680,-1,-1,-1
0,4307,2370,1,-1,-1
0,4308,6820,1,-1,-1
0,4309,3120,-1,-1,-1
0,4310,6790,1,-1,-1
0,4311,3670,1,-1,-1
0,4312,1880,-1,-1,-1
0,4313,1120,-1,-1,-1
0,4314,3090,1,-1,-1
0,4315,2970,1,-1,-1
0,4316,9010,-1,-1,-1
0,4317,3560,1,-1,-1
0,4318,10660,1,-1,-1
0,4319,3560,1,-1,-1
0,4320,1870,1,-1,-1
0,4321,2530,1,-1,-1
0,4322,2670,-1,-1,-1
0,4323,4490,1,-1,-1
0,4324,3890,1,-1,-1
0,4325,7890,1,-1,-1
0,4326,2760,1,-1,-1
0,4327,21210,1,-1,-1
0,4328,2490,-1,-1,-1
0,4329,1410,-1,-1,-1
0,4330,3350,1,-1,-1
0,4331,2440,1,-1,-1
0,4332,4570,-1,-1,-1
0,4333,2140,1,-1,-1
0,4334,4310,1,-1,-1
0,4335,3260,1,-1,-1
0,4336,1990,-1,-1,-1
0,4337,21150,-1,-1,-1
0,4338,12290,1,-1,-1
0,4339,13440,1,-1,-1
0,4340,11380,-1,-1,-1
0,4341,2340,1,-1,-1
0,4342,1060,-1,-1,-1
0,4343,5180,-1,-1,-1
0,4344,3950,1,-1,-1
0,4345,1370,1,-1,-1
0,4346,3160,-1,-1,-1
0,4347,2430,-1,-1,-1
0,4348,1520,1,-1,-1
0,4349,4740,1,-1,-1
0,4350,11690,-1,-1,-1
0,4351,1230,1,-1,-1
0,4352,4680,-1,-1,-1
0,4353,6020,-1,-1,-1
0,4354,6060,1,-1,-1
0,4355,1410,1,-1,-1
0,4356,1630,1,-1,-1
0,4357,6540,1,-1,-1
0,4358,2070,-1,-1,-1
0,4359,2660,1,-1,-1
0,4360,3420,1,-1,-1
0,4361,4750,-1,-1,-1
0,4362,1020,1,-1,-1
0,4363,2880,-1,-1,-1
0,4364,4120,-1,-1,-1
0,4365,4550,1,-1,-1
0,4366,6350,1,-1,-1
0,4367,1130,-1,-1,-1
0,4368,16550,-1,-1,-1
0,4369,1850,-1,-1,-1
0,4370,4820,-1,-1,-1
0,4371,860,-1,-1,-1
0,4372,3900,-1,-1,-1
0,4373,1530,1,-1,-1
0,4374,12400,1,-1,-1
0,4375,3120,1,-1,-1
0,4376,4670,1,-1,-1
0,4377,7390,1,-1,-1
0,4378,6490,-1,-1,-1
0,4379,6770,-1,-1,-1
0,4380,1870,1,-1,-1
0,4381,870,-1,-1,-1
0,4382,4300,1,-1,-1
0,4383,3290,-1,-1,-1
0,4384,820,1,-1,-1
0,4385,3570,1,-1,-1
0,4386,18020,1,-1,-1
0,4387,2050,-1,-1,-1
0,4388,500,-1,-1,-1
0,4389,960,1,-1,-1
0,4390,4300,1,-1,-1
0,4391,970,1,-1,-1
0,4392,3630,-1,-1,-1
0,4393,3870,-1,-1,-1
0,4394,3210,1,-1,-1
0,4395,530,1,-1,-1
0,4396,1630,1,-1,-1
0,4397,2620,-1,-1,-1
0,4398,4560,-1,-1,-1
0,4399,1740,1,-1,-1
0,4400,600,1,0,0
0,4401,2790,1,0,0
0,4402,8030,-1,0,0
0,4403,810,1,0,0
0,4404,1640,-1,0,0
0,4405,2930,1,0,0
0,4406,1660,-1,0,0
0,4407,7070,1,0,0
0,4408,1850,1,0,0
0,4409,1060,-1,0,0
0,4410,1850,-1,0,0
0,4411,1500,1,0,0
0,4412,3940,-1,0,0
0,4413,1770,1,0,0
0,4414,1910,-1,0,0
0,4415,7780,-1,0,0
0,4416,4740,-1,0,0
0,4417,2050,1,0,0
0,4418,6730,-1,0,0
0,4419,4490,1,0,0
0,4420,850,-1,0,0
0,4421,3010,1,0,0
0,4422,3840,1,0,0
0,4423,2950,-1,0,0
0,4424,3410,-1,0,0
0,4425,2210,1,0,0
0,4426,2970,-1,0,0
0,4427,3120,-1,0,0
0,4428,900,1,0,0
0,4429,660,1,0,0
0,4430,1510,-1,0,0
0,4431,2430,-1,0,0
0,4432,690,-1,0,0
0,4433,1460,-1,0,0
0,4434,2440,1,0,0
0,4435,890,1,0,0
0,4436,5020,1,0,0
0,4437,3210,-1,0,0
0,4438,1770,1,0,0
0,4439,2420,-1,0,0
0,4440,4670,-1,0,0
0,4441,4620,1,0,0
0,4442,810,-1,0,0
0,4443,1680,1,0,0
0,4444,4090,-1,0,0
0,4445,2110,1,0,0
0,4446,8430,-1,0,0
0,4447,3350,1,0,0
0,4448,10300,1,0,0
0,4449,6890,1,0,0
0,4450,3730,-1,0,0
0,4451,900,-1,0,0
0,4452,1330,-1,0,0
0,4453,6930,-1,0,0
0,4454,1110,-1,0,0
0,4455,1700,1,0,0
0,4456,1470,1,0,0
0,4457,4630,1,0,0
0,4458,5630,-1,0,0
0,4459,1630,1,0,0
0,4460,10730,-1,0,0
0,4461,2800,1,0,0
0,4462,2660,-1,0,0
0,4463,11380,1,0,0
0,4464,1020,1,0,0
0,4465,4180,1,0,0
0,4466,1070,-1,0,0
0,4467,3580,-1,0,0
0,4468,7960,1,0,0
0,4469,5170,-1,0,0
0,4470,6500,-1,0,0
0,4471,4120,1,0,0
0,4472,2730,1,0,0
0,4473,2250,1,0,0
0,4474,4000,-1,0,0
0,4475,5940,1,0,0
0,4476,2440,-1,0,0
0,4477,4380,-1,0,0
0,4478,2730,1,0,0
0,4479,11130,1,0,0
0,4480,3090,-1,0,0
0,4481,2270,1,0,0
0,4482,3550,-1,0,0
0,4483,750,-1,0,0
0,4484,6520,1,0,0
0,4485,1640,-1,0,0
0,4486,3450,-1,0,0
0,4487,5540,1,0,0
0,4488,2650,1,0,0
0,4489,1930,-1,0,0
0,4490,2210,-1,0,0
0,4491,2910,1,0,0
0,4492,580,1,0,0
0,4493,14740,-1,0,0
0,4494,2190,1,0,0
0,4495,4990,1,0,0
0,4496,3770,-1,0,0
0,4497,7270,1,0,0
0,4498,2740,-1,0,0
0,4499,1710,1,0,0
0,4500,1180,-1,0,0
0,4501,3150,1,0,0
0,4502,6140,1,0,0
0,4503,4380,-1,0,0
0,4504,9930,1,0,0
0,4505,11850,-1,0,0
0,4506,4630,-1,0,0
0,4507,2220,1,0,0
0,4508,5670,1,0,0
0,4509,1960,1,0,0
0,4510,2070,1,0,0
0,4511,2910,1,0,0
0,4512,10350,-1,0,0
0,4513,2010,-1,0,0
0,4514,1360,1,0,0
0,4515,5150,1,0,0
0,4516,850,-1,0,0
0,4517,5580,-1,0,0
0,4518,4410,1,0,0
0,4519,4480,1,0,0
0,4520,6590,1,0,0
0,4521,5890,1,0,0
0,4522,13490,-1,0,0
0,4523,6030,1,0,0
0,4524,620,-1,0,0
0,4525,1780,1,0,0
0,4526,3270,1,0,0
0,4527,5300,1,0,0
0,4528,4790,1,0,0
0,4529,800,1,0,0
0,4530,9700,1,0,0
0,4531,930,1,0,0
0,4532,4140,1,0,0
0,4533,1060,-1,0,0
0,4534,4280,-1,0,0
0,4535,25960,-1,0,0
0,4536,2770,-1,0,0
0,4537,4420,1,0,0
0,4538,6880,-1,0,0
0,4539,12300,-1,0,0
0,4540,2790,1,0,0
0,4541,1410,1,0,0
0,4542,18990,1,0,0
0,4543,1160,1,0,0
0,4544,5430,1,0,0
0,4545,3380,1,0,0
0,4546,5600,1,0,0
0,4547,7280,1,0,0
0,4548,1230,1,0,0
0,4549,2150,-1,0,0
0,4550,6530,1,0,0
0,4551,1500,-1,0,0
0,4552,2220,1,0,0
0,4553,8110,-1,0,0
0,4554,1860,1,0,0
0,4555,3230,-1,0,0
0,4556,1720,-1,0,0
0,4557,8270,-1,0,0
0,4558,3850,1,0,0
0,4559,2680,1,0,0
0,4560,2530,-1,0,0
0,4561,11890,1,0,0
0,4562,5020,-1,0,0
0,4563,11100,1,0,0
0,4564,4170,1,0,0
0,4565,6170,1,0,0
0,4566,11000,-1,0,0
0,4567,3850,1,0,0
0,4568,6540,-1,0,0
0,4569,1950,1,0,0
0,4570,9340,-1,0,0
0,4571,1150,1,0,0
0,4572,4680,1,0,0
0,4573,9990,-1,0,0
0,4574,2680,1,0,0
0,4575,3290,1,0,0
0,4576,7630,-1,0,0
0,4577,3730,-1,0,0
0,4578,1820,1,0,0
0,4579,2750,1,0,0
0,4580,2120,1,0,0
0,4581,1880,1,0,0
0,4582,7400,-1,0,0
0,4583,12030,1,0,0
0,4584,1070,1,0,0
0,4585,2290,1,0,0
0,4586,3400,1,0,0
0,4587,2440,1,0,0
0,4588,8750,1,0,0
0,4589,1790,-1,0,0
0,4590,470,-1,0,0
0,4591,7620,-1,0,0
0,4592,3500,-1,0,0
0,4593,3520,1,0,0
0,4594,3050,1,0,0
0,4595,2320,1,0,0
0,4596,5020,1,0,0
0,4597,3890,-1,0,0
0,4598,480,-1,0,0
0,4599,2430,-1,0,0
0,4600,7980,-1,0,0
0,4601,5100,-1,0,0
0,4602,1990,1,0,0
0,4603,3510,-1,0,0
0,4604,2010,-1,0,0
0,4605,1460,-1,0,0
0,4606,16170,1,0,0
0,4607,4180,1,0,0
0,4608,4600,1,0,0
0,4609,1760,1,0,0
0,4610,3200,1,0,0
0,4611,1450,1,0,0
0,4612,2480,1,0,0
0,4613,4820,-1,0,0
0,4614,5870,-1,0,0
0,4615,7830,1,0,0
0,4616,2960,1,0,0
0,4617,3980,1,0,0
0,4618,3370,1,0,0
0,4619,2080,-1,0,0
0,4620,5590,1,0,0
0,4621,6010,1,0,0
0,4622,7200,-1,0,0
0,4623,2840,1,0,0
0,4624,1240,1,0,0
0,4625,3570,1,0,0
0,4626,1240,1,0,0
0,4627,2830,1,0,0
0,4628,2420,1,0,0
0,4629,4680,1,0,0
0,4630,10290,-1,0,0
0,4631,1110,1,0,0
0,4632,2750,1,0,0
0,4633,13810,1,0,0
0,4634,2920,1,0,0
0,4635,1150,1,0,0
0,4636,3200,-1,0,0
0,4637,5510,-1,0,0
0,4638,890,1,0,0
0,4639,5830,1,0,0
0,4640,3730,1,0,0
0,4641,2280,-1,0,0
0,4642,3750,-1,0,0
0,4643,1740,1,0,0
0,4644,1560,1,0,0
0,4645,6940,-1,0,0
0,4646,2730,1,0,0
0,4647,7680,-1,0,0
0,4648,1630,-1,0,0
0,4649,2800,1,0,0
0,4650,5500,1,0,0
0,4651,550,-1,0,0
0,4652,4150,-1,0,0
0,4653,1910,-1,0,0
0,4654,7960,1,0,0
0,4655,460,1,0,0
0,4656,1640,1,0,0
0,4657,7240,1,0,0
0,4658,3220,1,0,0
0,4659,2670,1,0,0
0,4660,5540,-1,0,0
0,4661,4360,1,0,0
0,4662,1530,1,0,0
0,4663,4770,1,0,0
0,4664,2560,-1,0,0
0,4665,2250,1,0,0
0,4666,1930,-1,0,0
0,4667,5440,1,0,0
0,4668,2410,-1,0,0
0,4669,5420,1,0,0
0,4670,1720,1,0,0
0,4671,4440,-1,0,0
0,4672,1290,1,0,0
0,4673,710,1,0,0
0,4674,3860,-1,0,0
0,4675,1660,-1,0,0
0,4676,1110,-1,0,0
0,4677,1990,1,0,0
0,4678,5580,-1,0,0
0,4679,5100,-1,0,0
0,4680,2160,1,0,0
0,4681,4080,1,0,0
0,4682,1500,-1,0,0
0,4683,9410,-1,0,0
0,4684,2540,1,0,0
0,4685,3230,1,0,0
0,4686,7180,1,0,0
0,4687,1090,1,0,0
0,4688,8790,1,0,0
0,4689,730,-1,0,0
0,4690,4980,1,0,0
0,4691,4400,1,0,0
0,4692,9180,1,0,0
0,4693,960,1,0,0
0,4694,12960,1,0,0
0,4695,2350,1,0,0
0,4696,2600,1,0,0
0,4697,1970,-1,0,0
0,4698,2110,1,0,0
0,4699,5340,-1,0,0
0,4700,640,1,0,0
0,4701,490,1,0,0
0,4702,710,-1,0,0
0,4703,3230,-1,0,0
0,4704,1430,-1,0,0
0,4705,1640,-1,0,0
0,4706,2990,-1,0,0
0,4707,3610,-1,0,0
0,4708,5870,1,0,0
0,4709,1600,1,0,0
0,4710,3260,1,0,0
0,4711,3300,-1,0,0
0,4712,5700,-1,0,0
0,4713,2970,1,0,0
0,4714,5820,1,0,0
0,4715,5730,-1,0,0
0,4716,4340,1,0,0
0,4717,1130,1,0,0
0,4718,5280,-1,0,0
0,4719,8720,1,0,0
0,4720,3330,-1,0,0
0,4721,8240,1,0,0
0,4722,3610,1,0,0
0,4723,1480,1,0,0
0,4724,3630,-1,0,0
0,4725,870,1,0,0
0,4726,5050,1,0,0
0,4727,2100,-1,0,0
0,4728,3060,1,0,0
0,4729,3770,1,0,0
0,4730,890,-1,0,0
0,4731,3110,1,0,0
0,4732,1310,1,0,0
0,4733,11040,1,0,0
0,4734,3620,-1,0,0
0,4735,10960,1,0,0
0,4736,4580,-1,0,0
0,4737,16440,-1,0,0
0,4738,9820,1,0,0
0,4739,2660,-1,0,0
0,4740,8520,1,0,0
0,4741,2280,-1,0,0
0,4742,4280,-1,0,0
0,4743,10020,1,0,0
0,4744,12450,1,0,0
0,4745,2420,1,0,0
0,4746,8650,1,0,0
0,4747,6450,1,0,0
0,4748,5060,-1,0,0
0,4749,4790,1,0,0
0,4750,4520,-1,0,0
0,4751,2170,-1,0,0
0,4752,1070,1,0,0
0,4753,10170,1,0,0
0,4754,1300,1,0,0
0,4755,1680,-1,0,0
0,4756,1970,1,0,0
0,4757,600,-1,0,0
0,4758,8230,-1,0,0
0,4759,3160,1,0,0
0,4760,2080,1,0,0
0,4761,5280,1,0,0
0,4762,7360,1,0,0
0,4763,880,1,0,0
0,4764,6240,-1,0,0
0,4765,2080,1,0,0
0,4766,2370,1,0,0
0,4767,1510,1,0,0
0,4768,2430,-1,0,0
0,4769,1320,-1,0,0
0,4770,1740,-1,0,0
0,4771,780,-1,0,0
0,4772,7380,-1,0,0
0,4773,1890,-1,0,0
0,4774,390,1,0,0
0,4775,5050,1,0,0
0,4776,2480,1,0,0
0,4777,1680,-1,0,0
0,4778,1320,-1,0,0
0,4779,8190,-1,0,0
0,4780,3440,-1,0,0
0,4781,8270,1,0,0
0,4782,2480,1,0,0
0,4783,5580,-1,0,0
0,4784,2260,1,0,0
0,4785,3260,1,0,0
0,4786,790,-1,0,0
0,4787,1780,-1,0,0
0,4788,2500,-1,0,0
0,4789,1860,1,0,0
0,4790,3150,-1,0,0
0,4791,7840,1,0,0
0,4792,7390,1,0,0
0,4793,1210,1,0,0
0,4794,3130,1,0,0
0,4795,5620,1,0,0
0,4796,2440,1,0,0
0,4797,5370,-1,0,0
0,4798,710,-1,0,0
0,4799,6600,1,0,0
0,4800,2840,1,-1,0
0,4801,900,1,-1,0
0,4802,5400,1,-1,0
0,4803,4520,1,-1,0
0,4804,2610,1,-1,0
0,4805,2130,-1,-1,0
0,4806,7830,1,-1,0
0,4807,1240,1,-1,0
0,4808,2020,-1,-1,0
0,4809,3170,1,-1,0
0,4810,1790,1,-1,0
0,4811,3440,-1,-1,0
0,4812,2870,1,-1,0
0,4813,2260,1,-1,0
0,4814,3510,-1,-1,0
0,4815,3280,-1,-1,0
0,4816,1980,-1,-1,0
0,4817,3990,1,-1,0
0,4818,3470,1,-1,0
0,4819,9020,-1,-1,0
0,4820,2390,1,-1,0
0,4821,1070,1,-1,0
0,4822,7650,-1,-1,0
0,4823,910,1,-1,0
0,4824,7970,-1,-1,0
0,4825,8400,-1,-1,0
0,4826,1320,1,-1,0
0,4827,730,1,-1,0
0,4828,2560,1,-1,0
0,4829,1060,1,-1,0
0,4830,1380,-1,-1,0
0,4831,2780,1,-1,0
0,4832,11690,-1,-1,0
0,4833,3430,1,-1,0
0,4834,3510,1,-1,0
0,4835,1190,1,-1,0
0,4836,1240,-1,-1,0
0,4837,6490,1,-1,0
0,4838,10990,1,-1,0
0,4839,4600,1,-1,0
0,4840,640,1,-1,0
0,4841,4820,1,-1,0
0,4842,9060,1,-1,0
0,4843,4840,1,-1,0
0,4844,1660,-1,-1,0
0,4845,4070,1,-1,0
0,4846,490,1,-1,0
0,4847,600,1,-1,0
0,4848,1310,-1,-1,0
0,4849,5520,-1,-1,0
0,4850,960,1,-1,0
0,4851,11660,-1,-1,0
0,4852,13770,1,-1,0
0,4853,2450,1,-1,0
0,4854,6210,-1,-1,0
0,4855,3350,1,-1,0
0,4856,1990,1,-1,0
0,4857,2300,1,-1,0
0,4858,2730,1,-1,0
0,4859,8370,1,-1,0
0,4860,8590,-1,-1,0
0,4861,3930,1,-1,0
0,4862,4940,1,-1,0
0,4863,4230,-1,-1,0
0,4864,1400,-1,-1,0
0,4865,3350,1,-1,0
0,4866,6010,1,-1,0
0,4867,10070,1,-1,0
0,4868,8540,-1,-1,0
0,4869,4850,1,-1,0
0,4870,1810,1,-1,0
0,4871,6750,-1,-1,0
0,4872,650,1,-1,0
0,4873,5980,1,-1,0
0,4874,3720,-1,-1,0
0,4875,1480,1,-1,0
0,4876,950,-1,-1,0
0,4877,9600,-1,-1,0
0,4878,760,-1,-1,0
0,4879,2540,1,-1,0
0,4880,1260,-1,-1,0
0,4881,750,1,-1,0
0,4882,1910,-1,-1,0
0,4883,5150,1,-1,0
0,4884,4540,1,-1,0
0,4885,10760,1,-1,0
0,4886,680,1,-1,0
0,4887,7530,1,-1,0
0,4888,3420,1,-1,0
0,4889,1590,-1,-1,0
0,4890,2930,-1,-1,0
0,4891,2000,1,-1,0
0,4892,5170,1,-1,0
0,4893,16140,1,-1,0
0,4894,1280,-1,-1,0
0,4895,3320,1,-1,0
0,4896,2080,1,-1,0
0,4897,1120,1,-1,0
0,4898,9260,1,-1,0
0,4899,640,1,-1,0
0,4900,2180,1,-1,0
0,4901,11900,1,-1,0
0,4902,1870,1,-1,0
0,4903,3650,1,-1,0
0,4904,3520,-1,-1,0
0,4905,7990,1,-1,0
0,4906,690,1,-1,0
0,4907,8230,-1,-1,0
0,4908,20060,-1,-1,0
0,4909,2170,1,-1,0
0,4910,1470,-1,-1,0
0,4911,2180,1,-1,0
0,4912,710,1,-1,0
0,4913,6420,-1,-1,0
0,4914,5160,1,-1,0
0,4915,11790,1,-1,0
0,4916,11230,1,-1,0
0,4917,2160,1,-1,0
0,4918,4010,1,-1,0
0,4919,3480,1,-1,0
0,4920,6140,-1,-1,0
0,4921,6730,1,-1,0
0,4922,2140,-1,-1,0
0,4923,3240,1,-1,0
0,4924,1160,1,-1,0
0,4925,3330,-1,-1,0
0,4926,1160,1,-1,0
0,4927,9650,1,-1,0
0,4928,5150,1,-1,0
0,4929,6010,1,-1,0
0,4930,1410,-1,-1,0
0,4931,11310,1,-1,0
0,4932,1720,-1,-1,0
0,4933,3780,-1,-1,0
0,4934,3090,-1,-1,0
0,4935,1740,-1,-1,0
0,4936,12030,-1,-1,0
0,4937,5420,1,-1,0
0,4938,5610,-1,-1,0
0,4939,4580,-1,-1,0
0,4940,10250,1,-1,0
0,4941,1750,1,-1,0
0,4942,2720,1,-1,0
0,4943,10140,1,-1,0
0,4944,9040,-1,-1,0
0,4945,3350,1,-1,0
0,4946,4930,-1,-1,0
0,4947,2340,-1,-1,0
0,4948,970,1,-1,0
0,4949,740,1,-1,0
0,4950,340,-1,-1,0
0,4951,6200,-1,-1,0
0,4952,2150,1,-1,0
0,4953,1320,-1,-1,0
0,4954,1650,-1,-1,0
0,4955,1420,1,-1,0
0,4956,2170,-1,-1,0
0,4957,2040,1,-1,0
0,4958,490,1,-1,0
0,4959,840,1,-1,0
0,4960,3780,-1,-1,0
0,4961,2060,1,-1,0
0,4962,2150,1,-1,0
0,4963,5150,1,-1,0
0,4964,17890,-1,-1,0
0,4965,7250,-1,-1,0
0,4966,1620,1,-1,0
0,4967,3130,1,-1,0
0,4968,21220,-1,-1,0
0,4969,4450,1,-1,0
0,4970,8300,-1,-1,0
0,4971,3510,-1,-1,0
0,4972,1090,1,-1,0
0,4973,6370,1,-1,0
0,4974,2430,-1,-1,0
0,4975,10720,1,-1,0
0,4976,3050,1,-1,0
0,4977,11390,1,-1,0
0,4978,6080,1,-1,0
0,4979,1240,1,-1,0
0,4980,4280,1,-1,0
0,4981,1100,1,-1,0
0,4982,4260,1,-1,0
0,4983,2450,1,-1,0
0,4984,9870,1,-1,0
0,4985,2570,1,-1,0
0,4986,6240,-1,-1,0
0,4987,11810,1,-1,0
0,4988,3950,1,-1,0
0,4989,18480,1,-1,0
0,4990,3450,-1,-1,0
0,4991,2410,-1,-1,0
0,4992,5910,1,-1,0
0,4993,21340,-1,-1,0
0,4994,1300,-1,-1,0
0,4995,3150,-1,-1,0
0,4996,2120,-1,-1,0
0,4997,1260,1,-1,0
0,4998,6900,1,-1,0
0,4999,4690,1,-1,0
0,5000,620,1,-1,0
0,5001,4590,1,-1,0
0,5002,2860,-1,-1,0
0,5003,4750,-1,-1,0
0,5004,4850,-1,-1,0
0,5005,11070,-1,-1,0
0,5006,5250,1,-1,0
0,5007,2260,1,-1,0
0,5008,6800,1,-1,0
0,5009,7280,1,-1,0
0,5010,6060,1,-1,0
0,5011,11030,1,-1,0
0,5012,2100,-1,-1,0
0,5013,2770,1,-1,0
0,5014,1440,-1,-1,0
0,5015,1670,-1,-1,0
0,5016,8080,-1,-1,0
0,5017,2280,1,-1,0
0,5018,2730,-1,-1,0
0,5019,5690,1,-1,0
0,5020,2990,-1,-1,0
0,5021,3490,1,-1,0
0,5022,6300,1,-1,0
0,5023,1050,1,-1,0
0,5024,1170,1,-1,0
0,5025,4520,-1,-1,0
0,5026,1240,1,-1,0
0,5027,4110,1,-1,0
0,5028,5830,1,-1,0
0,5029,10370,-1,-1,0
0,5030,3460,1,-1,0
0,5031,6520,1,-1,0
0,5032,850,1,-1,0
0,5033,2420,1,-1,0
0,5034,4040,1,-1,0
0,5035,5070,1,-1,0
0,5036,2300,1,-1,0
0,5037,980,1,-1,0
0,5038,1410,1,-1,0
0,5039,6270,1,-1,0
0,5040,1290,-1,-1,0
0,5041,1270,1,-1,0
0,5042,2690,1,-1,0
0,5043,1390,-1,-1,0
0,5044,7980,-1,-1,0
0,5045,14890,1,-1,0
0,5046,5260,-1,-1,0
0,5047,5320,1,-1,0
0,5048,1090,-1,-1,0
0,5049,440,-1,-1,0
0,5050,950,1,-1,0
0,5051,1510,1,-1,0
0,5052,2550,1,-1,0
0,5053,6840,1,-1,0
0,5054,1370,1,-1,0
0,5055,1690,-1,-1,0
0,5056,2870,-1,-1,0
0,5057,1240,1,-1,0
0,5058,6410,-1,-1,0
0,5059,3460,1,-1,0
0,5060,2940,1,-1,0
0,5061,3380,-1,-1,0
0,5062,7110,-1,-1,0
0,5063,6200,1,-1,0
0,5064,2900,1,-1,0
0,5065,1760,1,-1,0
0,5066,6670,1,-1,0
0,5067,5510,-1,-1,0
0,5068,7620,-1,-1,0
0,5069,7750,-1,-1,0
0,5070,3180,1,-1,0
0,5071,2720,-1,-1,0
0,5072,13530,-1,-1,0
0,5073,1260,-1,-1,0
0,5074,5710,1,-1,0
0,5075,2740,-1,-1,0
0,5076,1650,-1,-1,0
0,5077,920,-1,-1,0
0,5078,1060,-1,-1,0
0,5079,2790,-1,-1,0
0,5080,6110,-1,-1,0
0,5081,1940,1,-1,0
0,5082,3700,-1,-1,0
0,5083,4270,-1,-1,0
0,5084,2950,-1,-1,0
0,5085,4660,1,-1,0
0,5086,6240,1,-1,0
0,5087,2170,1,-1,0
0,5088,3750,-1,-1,0
0,5089,3210,1,-1,0
0,5090,10210,1,-1,0
0,5091,1340,1,-1,0
0,5092,910,1,-1,0
0,5093,5230,1,-1,0
0,5094,1280,1,-1,0
0,5095,2280,1,-1,0
0,5096,2060,-1,-1,0
0,5097,10580,1,-1,0
0,5098,2270,1,-1,0
0,5099,3000,-1,-1,0
0,5100,11850,-1,-1,0
0,5101,4810,1,-1,0
0,5102,4110,1,-1,0
0,5103,1410,1,-1,0
0,5104,2170,1,-1,0
0,5105,9520,-1,-1,0
0,5106,7640,1,-1,0
0,5107,1260,1,-1,0
0,5108,2340,1,-1,0
0,5109,1740,-1,-1,0
0,5110,7040,-1,-1,0
0,5111,5510,1,-1,0
0,5112,11700,1,-1,0
0,5113,8970,1,-1,0
0,5114,12330,1,-1,0
0,5115,7320,1,-1,0
0,5116,1770,1,-1,0
0,5117,2950,1,-1,0
0,5118,1360,1,-1,0
0,5119,3320,-1,-1,0
0,5120,1170,-1,-1,0
0,5121,960,1,-1,0
0,5122,1910,1,-1,0
0,5123,5940,1,-1,0
0,5124,2670,-1,-1,0
0,5125,2490,-1,-1,0
0,5126,2840,1,-1,0
0,5127,8730,1,-1,0
0,5128,4000,1,-1,0
0,5129,8310,1,-1,0
0,5130,12400,1,-1,0
0,5131,1160,1,-1,0
0,5132,2850,1,-1,0
0,5133,9100,-1,-1,0
0,5134,1100,1,-1,0
0,5135,1500,-1,-1,0
0,5136,1620,1,-1,0
0,5137,2840,1,-1,0
0,5138,4460,-1,-1,0
0,5139,1620,1,-1,0
0,5140,1520,-1,-1,0
0,5141,3880,1,-1,0
0,5142,2470,1,-1,0
0,5143,9700,1,-1,0
0,5144,3440,-1,-1,0
0,5145,7060,1,-1,0
0,5146,2860,-1,-1,0
0,5147,11630,1,-1,0
0,5148,4890,1,-1,0
0,5149,4500,-1,-1,0
0,5150,8040,-1,-1,0
0,5151,5520,-1,-1,0
0,5152,2720,1,-1,0
0,5153,3150,1,-1,0
0,5154,5260,1,-1,0
0,5155,3110,1,-1,0
0,5156,1370,1,-1,0
0,5157,4200,1,-1,0
0,5158,1200,-1,-1,0
0,5159,810,1,-1,0
0,5160,12520,-1,-1,0
0,5161,2360,1,-1,0
0,5162,3400,1,-1,0
0,5163,1930,1,-1,0
0,5164,5910,-1,-1,0
0,5165,1730,-1,-1,0
0,5166,2820,1,-1,0
0,5167,2890,1,-1,0
0,5168,4960,1,-1,0
0,5169,2160,-1,-1,0
0,5170,1410,-1,-1,0
0,5171,2090,-1,-1,0
0,5172,5390,1,-1,0
0,5173,7630,-1,-1,0
0,5174,4350,1,-1,0
0,5175,2180,1,-1,0
0,5176,3510,1,-1,0
0,5177,4340,-1,-1,0
0,5178,1380,-1,-1,0
0,5179,4720,1,-1,0
0,5180,9220,1,-1,0
0,5181,2470,1,-1,0
0,5182,2910,-1,-1,0
0,5183,28180,1,-1,0
0,5184,2660,-1,-1,0
0,5185,1600,-1,-1,0
0,5186,1880,1,-1,0
0,5187,3120,1,-1,0
0,5188,1990,1,-1,0
0,5189,1650,-1,-1,0
0,5190,720,1,-1,0
0,5191,6910,1,-1,0
0,5192,2010,-1,-1,0
0,5193,1850,1,-1,0
0,5194,3490,1,-1,0
0,5195,2040,1,-1,0
0,5196,9600,1,-1,0
0,5197,2930,-1,-1,0
0,5198,7950,1,-1,0
0,5199,7530,1,-1,0
0,5200,4100,-1,-1,-1
0,5201,5560,-1,-1,-1
0,5202,430,-1,-1,-1
0,5203,3800,-1,-1,-1
0,5204,1220,-1,-1,-1
0,5205,6830,1,-1,-1
0,5206,1180,1,-1,-1
0,5207,5980,-1,-1,-1
0,5208,3240,1,-1,-1
0,5209,6040,1,-1,-1
0,5210,1990,-1,-1,-1
0,5211,4680,-1,-1,-1
0,5212,1480,-1,-1,-1
