parcode,trial,rt,choice,item_left,item_right
0,0,1230,-1,1,1
0,1,4410,1,1,1
0,2,1850,1,1,1
0,3,5300,-1,1,1
0,4,2380,1,1,1
0,5,5140,-1,1,1
0,6,590,-1,1,1
0,7,2980,1,1,1
0,8,960,1,1,1
0,9,5040,1,1,1
0,10,14820,1,1,1
0,11,3890,1,1,1
0,12,9710,1,1,1
0,13,8000,1,1,1
0,14,640,1,1,1
0,15,1480,1,1,1
0,16,1410,1,1,1
0,17,7650,1,1,1
0,18,15150,-1,1,1
0,19,1230,1,1,1
0,20,6890,1,1,1
0,21,12500,1,1,1
0,22,12770,1,1,1
0,23,4410,1,1,1
0,24,4450,1,1,1
0,25,2910,1,1,1
0,26,6940,-1,1,1
0,27,4440,1,1,1
0,28,5950,-1,1,1
0,29,1560,1,1,1
0,30,10680,1,1,1
0,31,1660,1,1,1
0,32,2440,1,1,1
0,33,2630,1,1,1
0,34,1430,1,1,1
0,35,1370,1,1,1
0,36,1930,1,1,1
0,37,1550,1,1,1
0,38,2340,1,1,1
0,39,3810,-1,1,1
0,40,640,-1,1,1
0,41,2620,1,1,1
0,42,940,1,1,1
0,43,4480,1,1,1
0,44,1270,-1,1,1
0,45,4410,1,1,1
0,46,740,-1,1,1
0,47,2250,1,1,1
0,48,5330,1,1,1
0,49,4060,1,1,1
0,50,1050,-1,1,1
0,51,1320,1,1,1
0,52,2550,-1,1,1
0,53,4650,-1,1,1
0,54,2300,-1,1,1
0,55,3370,1,1,1
0,56,11950,1,1,1
0,57,4400,1,1,1
0,58,12100,1,1,1
0,59,930,1,1,1
0,60,1690,1,1,1
0,61,6950,-1,1,1
0,62,5530,1,1,1
0,63,2210,-1,1,1
0,64,1540,1,1,1
0,65,2760,1,1,1
0,66,1460,-1,1,1
0,67,3040,1,1,1
0,68,690,1,1,1
0,69,5680,1,1,1
0,70,3380,1,1,1
0,71,4500,1,1,1
0,72,1050,-1,1,1
0,73,3270,1,1,1
0,74,4290,1,1,1
0,75,2050,1,1,1
0,76,5480,1,1,1
0,77,2960,1,1,1
0,78,820,1,1,1
0,79,8430,1,1,1
0,80,10070,1,1,1
0,81,2560,-1,1,1
0,82,4820,-1,1,1
0,83,7230,1,1,1
0,84,3070,1,1,1
0,85,2380,1,1,1
0,86,4310,1,1,1
0,87,9400,1,1,1
0,88,1760,-1,1,1
0,89,4940,1,1,1
0,90,1510,1,1,1
0,91,1800,1,1,1
0,92,4410,-1,1,1
0,93,8740,1,1,1
0,94,4010,1,1,1
0,95,1070,-1,1,1
0,96,3360,1,1,1
0,97,3590,1,1,1
0,98,1830,1,1,1
0,99,5550,1,1,1
0,100,2220,1,1,1
0,101,9790,1,1,1
0,102,3760,1,1,1
0,103,1330,1,1,1
0,104,1990,1,1,1
0,105,6610,1,1,1
0,106,1370,1,1,1
0,107,11630,1,1,1
0,108,1310,1,1,1
0,109,4070,1,1,1
0,110,2860,1,1,1
0,111,2400,1,1,1
0,112,3170,1,1,1
0,113,15230,1,1,1
0,114,4030,1,1,1
0,115,1110,-1,1,1
0,116,4470,1,1,1
0,117,1840,1,1,1
0,118,1260,1,1,1
0,119,2950,-1,1,1
0,120,3480,1,1,1
0,121,2040,1,1,1
0,122,1180,1,1,1
0,123,2800,1,1,1
0,124,4420,1,1,1
0,125,4390,1,1,1
0,126,6160,-1,1,1
0,127,5240,1,1,1
0,128,9590,1,1,1
0,129,1170,-1,1,1
0,130,1730,1,1,1
0,131,2190,1,1,1
0,132,3230,1,1,1
0,133,10670,-1,1,1
0,134,2690,1,1,1
0,135,930,1,1,1
0,136,2780,-1,1,1
0,137,3690,1,1,1
0,138,3970,1,1,1
0,139,1340,-1,1,1
0,140,4970,1,1,1
0,141,1290,1,1,1
0,142,2040,1,1,1
0,143,6740,1,1,1
0,144,2340,1,1,1
0,145,4830,1,1,1
0,146,1490,1,1,1
0,147,3970,1,1,1
0,148,8460,1,1,1
0,149,1690,1,1,1
0,150,1190,1,1,1
0,151,1840,1,1,1
0,152,2410,1,1,1
0,153,7710,1,1,1
0,154,4570,1,1,1
0,155,1010,-1,1,1
0,156,1730,1,1,1
0,157,7410,1,1,1
0,158,970,1,1,1
0,159,9380,1,1,1
0,160,4050,1,1,1
0,161,5720,-1,1,1
0,162,20340,1,1,1
0,163,1150,1,1,1
0,164,4220,1,1,1
0,165,3230,1,1,1
0,166,4180,1,1,1
0,167,1860,1,1,1
0,168,1720,-1,1,1
0,169,3880,-1,1,1
0,170,3180,-1,1,1
0,171,1540,1,1,1
0,172,1050,1,1,1
0,173,1880,1,1,1
0,174,860,-1,1,1
0,175,5130,1,1,1
0,176,4570,1,1,1
0,177,2500,1,1,1
0,178,750,1,1,1
0,179,2010,1,1,1
0,180,5530,1,1,1
0,181,4350,1,1,1
0,182,4700,1,1,1
0,183,1480,1,1,1
0,184,6730,1,1,1
0,185,3630,1,1,1
0,186,1240,1,1,1
0,187,830,1,1,1
0,188,3230,1,1,1
0,189,6310,1,1,1
0,190,3250,-1,1,1
0,191,4560,1,1,1
0,192,9920,1,1,1
0,193,3170,-1,1,1
0,194,1240,1,1,1
0,195,1370,1,1,1
0,196,4570,1,1,1
0,197,810,-1,1,1
0,198,3860,1,1,1
0,199,1660,1,1,1
0,200,1930,-1,1,1
0,201,4900,1,1,1
0,202,2980,1,1,1
0,203,4280,-1,1,1
0,204,3720,1,1,1
0,205,2270,-1,1,1
0,206,1960,1,1,1
0,207,3810,1,1,1
0,208,2450,1,1,1
0,209,1970,1,1,1
0,210,500,1,1,1
0,211,2440,1,1,1
0,212,2080,1,1,1
0,213,3490,1,1,1
0,214,3170,-1,1,1
0,215,2890,1,1,1
0,216,2350,1,1,1
0,217,1330,-1,1,1
0,218,3150,1,1,1
0,219,3860,1,1,1
0,220,4970,1,1,1
0,221,12280,1,1,1
0,222,1290,1,1,1
0,223,3660,1,1,1
0,224,5600,-1,1,1
0,225,4240,-1,1,1
0,226,1810,1,1,1
0,227,470,1,1,1
0,228,1240,1,1,1
0,229,4280,1,1,1
0,230,2580,1,1,1
0,231,6980,1,1,1
0,232,2890,1,1,1
0,233,1750,1,1,1
0,234,610,-1,1,1
0,235,10710,1,1,1
0,236,11610,-1,1,1
0,237,2400,1,1,1
0,238,3540,-1,1,1
0,239,920,1,1,1
0,240,2180,1,1,1
0,241,940,1,1,1
0,242,1970,1,1,1
0,243,1240,-1,1,1
0,244,1520,1,1,1
0,245,1800,1,1,1
0,246,2370,1,1,1
0,247,16280,-1,1,1
0,248,1470,1,1,1
0,249,4060,-1,1,1
0,250,1990,1,1,1
0,251,1150,-1,1,1
0,252,2930,1,1,1
0,253,11280,1,1,1
0,254,2500,1,1,1
0,255,2760,1,1,1
0,256,4100,1,1,1
0,257,2350,1,1,1
0,258,1020,1,1,1
0,259,1890,1,1,1
0,260,4060,1,1,1
0,261,1520,-1,1,1
0,262,10400,1,1,1
0,263,6100,1,1,1
0,264,13680,1,1,1
0,265,8710,1,1,1
0,266,3240,1,1,1
0,267,3010,-1,1,1
0,268,3110,1,1,1
0,269,1670,1,1,1
0,270,6480,-1,1,1
0,271,1170,-1,1,1
0,272,2280,1,1,1
0,273,4340,1,1,1
0,274,7750,1,1,1
0,275,6460,1,1,1
0,276,1120,1,1,1
0,277,3370,1,1,1
0,278,7050,1,1,1
0,279,1880,1,1,1
0,280,6720,1,1,1
0,281,3830,1,1,1
0,282,2550,1,1,1
0,283,15180,1,1,1
0,284,1450,1,1,1
0,285,15540,1,1,1
0,286,3800,1,1,1
0,287,4130,-1,1,1
0,288,1950,1,1,1
0,289,6140,-1,1,1
0,290,2260,-1,1,1
0,291,5540,1,1,1
0,292,930,1,1,1
0,293,1590,1,1,1
0,294,7820,-1,1,1
0,295,1180,1,1,1
0,296,5260,1,1,1
0,297,2080,1,1,1
0,298,6590,1,1,1
0,299,7360,-1,1,1
0,300,4770,1,1,1
0,301,1870,1,1,1
0,302,4790,1,1,1
0,303,6110,1,1,1
0,304,4960,1,1,1
0,305,3900,1,1,1
0,306,2700,-1,1,1
0,307,7830,1,1,1
0,308,3020,1,1,1
0,309,1820,1,1,1
0,310,4990,1,1,1
0,311,4370,1,1,1
0,312,1060,1,1,1
0,313,2920,-1,1,1
0,314,8320,1,1,1
0,315,7160,-1,1,1
0,316,1670,1,1,1
0,317,2030,1,1,1
0,318,1910,1,1,1
0,319,2860,1,1,1
0,320,3580,1,1,1
0,321,1520,-1,1,1
0,322,4600,1,1,1
0,323,6980,1,1,1
0,324,2580,-1,1,1
0,325,1050,1,1,1
0,326,4330,-1,1,1
0,327,3960,1,1,1
0,328,1860,1,1,1
0,329,2380,1,1,1
0,330,3590,1,1,1
0,331,1140,1,1,1
0,332,4090,1,1,1
0,333,1090,-1,1,1
0,334,1900,1,1,1
0,335,3240,1,1,1
0,336,1310,1,1,1
0,337,4070,1,1,1
0,338,13260,1,1,1
0,339,1590,1,1,1
0,340,1140,-1,1,1
0,341,1440,1,1,1
0,342,1500,1,1,1
0,343,2240,1,1,1
0,344,2500,1,1,1
0,345,9490,-1,1,1
0,346,1600,1,1,1
0,347,5340,1,1,1
0,348,1550,1,1,1
0,349,1490,1,1,1
0,350,3180,1,1,1
0,351,1310,1,1,1
0,352,4180,1,1,1
0,353,8200,1,1,1
0,354,9580,1,1,1
0,355,12390,1,1,1
0,356,4700,1,1,1
0,357,2560,1,1,1
0,358,2610,1,1,1
0,359,6220,1,1,1
0,360,2900,1,1,1
0,361,6270,1,1,1
0,362,3730,1,1,1
0,363,3470,1,1,1
0,364,5530,1,1,1
0,365,2160,1,1,1
0,366,2440,1,1,1
0,367,2520,1,1,1
0,368,350,1,1,1
0,369,1430,1,1,1
0,370,1560,1,1,1
0,371,1650,-1,1,1
0,372,1140,1,1,1
0,373,1200,-1,1,1
0,374,2330,1,1,1
0,375,1240,-1,1,1
0,376,7180,1,1,1
0,377,4870,-1,1,1
0,378,1910,1,1,1
0,379,4620,1,1,1
0,380,640,1,1,1
0,381,3140,-1,1,1
0,382,8850,-1,1,1
0,383,1910,1,1,1
0,384,1820,1,1,1
0,385,2040,1,1,1
0,386,10370,1,1,1
0,387,970,1,1,1
0,388,1120,1,1,1
0,389,720,1,1,1
0,390,3200,-1,1,1
0,391,2320,1,1,1
0,392,1550,1,1,1
0,393,8320,1,1,1
0,394,870,-1,1,1
0,395,7550,-1,1,1
0,396,2790,-1,1,1
0,397,1490,1,1,1
0,398,9260,1,1,1
0,399,9770,1,1,1
0,400,820,1,-1,-1
0,401,3770,1,-1,-1
0,402,3540,-1,-1,-1
0,403,1240,-1,-1,-1
0,404,9730,1,-1,-1
0,405,7390,1,-1,-1
0,406,4040,1,-1,-1
0,407,5860,1,-1,-1
0,408,14740,-1,-1,-1
0,409,6370,1,-1,-1
0,410,5170,-1,-1,-1
0,411,5240,1,-1,-1
0,412,6900,-1,-1,-1
0,413,2770,-1,-1,-1
0,414,1940,1,-1,-1
0,415,2370,-1,-1,-1
0,416,4000,1,-1,-1
0,417,3290,-1,-1,-1
0,418,3940,1,-1,-1
0,419,5300,1,-1,-1
0,420,1420,1,-1,-1
0,421,1920,1,-1,-1
0,422,5440,1,-1,-1
0,423,7090,1,-1,-1
0,424,6800,-1,-1,-1
0,425,2170,-1,-1,-1
0,426,4780,1,-1,-1
0,427,1290,-1,-1,-1
0,428,2370,-1,-1,-1
0,429,16780,1,-1,-1
0,430,4020,1,-1,-1
0,431,8230,-1,-1,-1
0,432,6520,-1,-1,-1
0,433,7560,1,-1,-1
0,434,8270,1,-1,-1
0,435,3610,1,-1,-1
0,436,1970,1,-1,-1
0,437,7930,1,-1,-1
0,438,2750,1,-1,-1
0,439,6270,1,-1,-1
0,440,2790,1,-1,-1
0,441,1450,1,-1,-1
0,442,1020,1,-1,-1
0,443,5920,1,-1,-1
0,444,2040,1,-1,-1
0,445,1460,-1,-1,-1
0,446,6490,-1,-1,-1
0,447,4500,-1,-1,-1
0,448,1120,1,-1,-1
0,449,4160,-1,-1,-1
0,450,1400,1,-1,-1
0,451,1040,1,-1,-1
0,452,290,1,-1,-1
0,453,7320,1,-1,-1
0,454,2680,-1,-1,-1
0,455,7520,1,-1,-1
0,456,1840,1,-1,-1
0,457,7750,-1,-1,-1
0,458,8800,-1,-1,-1
0,459,3660,1,-1,-1
0,460,1590,1,-1,-1
0,461,10390,-1,-1,-1
0,462,3830,1,-1,-1
0,463,4940,-1,-1,-1
0,464,3470,1,-1,-1
0,465,7790,1,-1,-1
0,466,300,1,-1,-1
0,467,3790,-1,-1,-1
0,468,1300,1,-1,-1
0,469,1100,1,-1,-1
0,470,3370,1,-1,-1
0,471,1790,1,-1,-1
0,472,5520,1,-1,-1
0,473,3060,-1,-1,-1
0,474,5950,1,-1,-1
0,475,1260,-1,-1,-1
0,476,1670,-1,-1,-1
0,477,860,-1,-1,-1
0,478,4560,1,-1,-1
0,479,750,1,-1,-1
0,480,4490,1,-1,-1
0,481,3340,1,-1,-1
0,482,1080,-1,-1,-1
0,483,1270,1,-1,-1
0,484,2700,-1,-1,-1
0,485,3050,-1,-1,-1
0,486,1970,-1,-1,-1
0,487,5470,-1,-1,-1
0,488,5350,1,-1,-1
0,489,1550,1,-1,-1
0,490,6430,1,-1,-1
0,491,4330,-1,-1,-1
0,492,1250,1,-1,-1
0,493,2080,1,-1,-1
0,494,920,1,-1,-1
0,495,1620,1,-1,-1
0,496,6920,1,-1,-1
0,497,6200,-1,-1,-1
0,498,4570,-1,-1,-1
0,499,2610,-1,-1,-1
0,500,950,1,-1,-1
0,501,2450,-1,-1,-1
0,502,1300,1,-1,-1
0,503,1480,1,-1,-1
0,504,3040,1,-1,-1
0,505,3960,-1,-1,-1
0,506,990,1,-1,-1
0,507,4430,1,-1,-1
0,508,1360,1,-1,-1
0,509,6930,1,-1,-1
0,510,2260,1,-1,-1
0,511,1130,1,-1,-1
0,512,6700,-1,-1,-1
0,513,3910,1,-1,-1
0,514,870,1,-1,-1
0,515,1630,1,-1,-1
0,516,13220,1,-1,-1
0,517,1450,1,-1,-1
0,518,3140,1,-1,-1
0,519,4560,-1,-1,-1
0,520,2160,1,-1,-1
0,521,850,1,-1,-1
0,522,2930,-1,-1,-1
0,523,980,-1,-1,-1
0,524,6740,1,-1,-1
0,525,1790,1,-1,-1
0,526,1190,-1,-1,-1
0,527,4020,-1,-1,-1
0,528,2560,1,-1,-1
0,529,590,-1,-1,-1
0,530,1470,1,-1,-1
0,531,630,1,-1,-1
0,532,2330,-1,-1,-1
0,533,9980,-1,-1,-1
0,534,500,-1,-1,-1
0,535,4150,-1,-1,-1
0,536,1880,1,-1,-1
0,537,9050,1,-1,-1
0,538,1320,1,-1,-1
0,539,1040,1,-1,-1
0,540,2690,1,-1,-1
0,541,6700,1,-1,-1
0,542,2230,1,-1,-1
0,543,15930,-1,-1,-1
0,544,2190,-1,-1,-1
0,545,11070,-1,-1,-1
0,546,3670,1,-1,-1
0,547,3470,-1,-1,-1
0,548,2140,1,-1,-1
0,549,1380,1,-1,-1
0,550,1830,1,-1,-1
0,551,9470,-1,-1,-1
0,552,1920,1,-1,-1
0,553,2430,1,-1,-1
0,554,1930,-1,-1,-1
0,555,1420,1,-1,-1
0,556,2770,1,-1,-1
0,557,4210,-1,-1,-1
0,558,5450,1,-1,-1
0,559,780,1,-1,-1
0,560,1120,-1,-1,-1
0,561,8180,1,-1,-1
0,562,5130,-1,-1,-1
0,563,8360,-1,-1,-1
0,564,3010,1,-1,-1
0,565,9080,-1,-1,-1
0,566,11190,-1,-1,-1
0,567,1260,1,-1,-1
0,568,2480,1,-1,-1
0,569,4130,-1,-1,-1
0,570,1080,1,-1,-1
0,571,2790,1,-1,-1
0,572,5250,-1,-1,-1
0,573,2140,-1,-1,-1
0,574,7070,-1,-1,-1
0,575,3740,1,-1,-1
0,576,10380,1,-1,-1
0,577,5020,1,-1,-1
0,578,5300,1,-1,-1
0,579,900,1,-1,-1
0,580,3010,1,-1,-1
0,581,4420,1,-1,-1
0,582,1520,1,-1,-1
0,583,8180,1,-1,-1
0,584,19640,-1,-1,-1
0,585,4760,1,-1,-1
0,586,1660,-1,-1,-1
0,587,3990,1,-1,-1
0,588,1330,1,-1,-1
0,589,1160,1,-1,-1
0,590,350,1,-1,-1
0,591,6010,1,-1,-1
0,592,1820,1,-1,-1
0,593,1380,-1,-1,-1
0,594,6800,-1,-1,-1
0,595,4810,1,-1,-1
0,596,1220,-1,-1,-1
0,597,1870,1,-1,-1
0,598,6880,1,-1,-1
0,599,6000,1,-1,-1
0,600,650,1,-1,-1
0,601,360,-1,-1,-1
0,602,8790,-1,-1,-1
0,603,1520,1,-1,-1
0,604,5130,-1,-1,-1
0,605,4160,1,-1,-1
0,606,3620,-1,-1,-1
0,607,5120,1,-1,-1
0,608,5110,-1,-1,-1
0,609,1540,1,-1,-1
0,610,1690,-1,-1,-1
0,611,2760,-1,-1,-1
0,612,1580,1,-1,-1
0,613,5530,1,-1,-1
0,614,4100,-1,-1,-1
0,615,6290,1,-1,-1
0,616,3040,1,-1,-1
0,617,3370,1,-1,-1
0,618,2250,1,-1,-1
0,619,1890,1,-1,-1
0,620,600,-1,-1,-1
0,621,2840,1,-1,-1
0,622,5680,-1,-1,-1
0,623,4850,1,-1,-1
0,624,1240,-1,-1,-1
0,625,1640,1,-1,-1
0,626,12630,1,-1,-1
0,627,1740,1,-1,-1
0,628,6750,1,-1,-1
0,629,2980,1,-1,-1
0,630,2880,-1,-1,-1
0,631,1500,1,-1,-1
0,632,6380,1,-1,-1
0,633,2970,-1,-1,-1
0,634,1870,-1,-1,-1
0,635,16440,1,-1,-1
0,636,1010,-1,-1,-1
0,637,2750,-1,-1,-1
0,638,1910,-1,-1,-1
0,639,6880,-1,-1,-1
0,640,2340,1,-1,-1
0,641,2190,-1,-1,-1
0,642,2990,-1,-1,-1
0,643,5780,1,-1,-1
0,644,1230,1,-1,-1
0,645,2790,-1,-1,-1
0,646,1420,1,-1,-1
0,647,2670,-1,-1,-1
0,648,1610,-1,-1,-1
0,649,11790,-1,-1,-1
0,650,3460,1,-1,-1
0,651,6230,1,-1,-1
0,652,6440,1,-1,-1
0,653,8620,-1,-1,-1
0,654,1600,-1,-1,-1
0,655,4390,-1,-1,-1
0,656,1130,-1,-1,-1
0,657,2190,1,-1,-1
0,658,3400,1,-1,-1
0,659,1950,-1,-1,-1
0,660,7410,1,-1,-1
0,661,4600,-1,-1,-1
0,662,530,1,-1,-1
0,663,3570,-1,-1,-1
0,664,7540,1,-1,-1
0,665,7000,-1,-1,-1
0,666,8930,1,-1,-1
0,667,11070,1,-1,-1
0,668,1600,1,-1,-1
0,669,1810,1,-1,-1
0,670,3210,1,-1,-1
0,671,3890,-1,-1,-1
0,672,5490,1,-1,-1
0,673,11130,-1,-1,-1
0,674,650,1,-1,-1
0,675,2320,1,-1,-1
0,676,9670,-1,-1,-1
0,677,980,-1,-1,-1
0,678,2460,-1,-1,-1
0,679,8090,-1,-1,-1
0,680,3560,-1,-1,-1
0,681,5440,1,-1,-1
0,682,8360,1,-1,-1
0,683,4800,1,-1,-1
0,684,2910,-1,-1,-1
0,685,6480,1,-1,-1
0,686,1660,-1,-1,-1
0,687,9190,1,-1,-1
0,688,2620,1,-1,-1
0,689,2770,-1,-1,-1
0,690,6950,-1,-1,-1
0,691,3760,1,-1,-1
0,692,3980,-1,-1,-1
0,693,4010,1,-1,-1
0,694,1560,1,-1,-1
0,695,1980,1,-1,-1
0,696,4220,-1,-1,-1
0,697,3130,1,-1,-1
0,698,870,1,-1,-1
0,699,2680,1,-1,-1
0,700,1730,-1,-1,-1
0,701,2080,-1,-1,-1
0,702,8780,1,-1,-1
0,703,2590,-1,-1,-1
0,704,7590,-1,-1,-1
0,705,5330,1,-1,-1
0,706,1080,1,-1,-1
0,707,2290,1,-1,-1
0,708,14840,-1,-1,-1
0,709,7820,-1,-1,-1
0,710,750,1,-1,-1
0,711,3610,-1,-1,-1
0,712,1550,1,-1,-1
0,713,3070,1,-1,-1
0,714,2670,-1,-1,-1
0,715,2970,-1,-1,-1
0,716,4730,1,-1,-1
0,717,1600,1,-1,-1
0,718,750,1,-1,-1
0,719,2830,1,-1,-1
0,720,2700,-1,-1,-1
0,721,2620,-1,-1,-1
0,722,2190,1,-1,-1
0,723,3060,1,-1,-1
0,724,1040,1,-1,-1
0,725,6790,1,-1,-1
0,726,4170,1,-1,-1
0,727,6660,-1,-1,-1
0,728,1730,-1,-1,-1
0,729,4890,1,-1,-1
0,730,9730,1,-1,-1
0,731,1410,-1,-1,-1
0,732,12470,1,-1,-1
0,733,4090,-1,-1,-1
0,734,6010,-1,-1,-1
0,735,5730,1,-1,-1
0,736,4110,1,-1,-1
0,737,4800,1,-1,-1
0,738,11190,-1,-1,-1
0,739,1270,-1,-1,-1
0,740,3950,-1,-1,-1
0,741,1260,1,-1,-1
0,742,2920,1,-1,-1
0,743,2760,1,-1,-1
0,744,10010,-1,-1,-1
0,745,1090,1,-1,-1
0,746,2370,-1,-1,-1
0,747,2700,-1,-1,-1
0,748,1150,-1,-1,-1
0,749,15190,1,-1,-1
0,750,8650,1,-1,-1
0,751,3680,1,-1,-1
0,752,1790,1,-1,-1
0,753,6570,-1,-1,-1
0,754,2080,1,-1,-1
0,755,9320,-1,-1,-1
0,756,9060,-1,-1,-1
0,757,9710,1,-1,-1
0,758,3240,1,-1,-1
0,759,11580,-1,-1,-1
0,760,2590,-1,-1,-1
0,761,3120,1,-1,-1
0,762,3620,1,-1,-1
0,763,2450,-1,-1,-1
0,764,1530,-1,-1,-1
0,765,4750,-1,-1,-1
0,766,4680,-1,-1,-1
0,767,3010,1,-1,-1
0,768,4960,-1,-1,-1
0,769,1470,1,-1,-1
0,770,720,1,-1,-1
0,771,2830,-1,-1,-1
0,772,1360,1,-1,-1
0,773,2610,1,-1,-1
0,774,4280,1,-1,-1
0,775,5850,-1,-1,-1
0,776,10860,-1,-1,-1
0,777,2240,1,-1,-1
0,778,3270,1,-1,-1
0,779,1120,1,-1,-1
0,780,6670,1,-1,-1
0,781,2370,-1,-1,-1
0,782,1800,1,-1,-1
0,783,6570,-1,-1,-1
0,784,1160,1,-1,-1
0,785,7090,1,-1,-1
0,786,4490,-1,-1,-1
0,787,4590,1,-1,-1
0,788,12600,-1,-1,-1
0,789,14140,1,-1,-1
0,790,9100,1,-1,-1
0,791,810,1,-1,-1
0,792,3740,-1,-1,-1
0,793,10250,1,-1,-1
0,794,5080,1,-1,-1
0,795,1100,1,-1,-1
0,796,5410,1,-1,-1
0,797,3510,-1,-1,-1
0,798,1010,-1,-1,-1
0,799,6150,-1,-1,-1
0,800,5370,1,-1,-1
0,801,5700,-1,-1,-1
0,802,2730,1,-1,-1
0,803,650,-1,-1,-1
0,804,5980,1,-1,-1
0,805,1520,1,-1,-1
0,806,2270,1,-1,-1
0,807,1120,-1,-1,-1
0,808,800,-1,-1,-1
0,809,1850,-1,-1,-1
0,810,15660,1,-1,-1
0,811,8260,-1,-1,-1
0,812,9590,1,-1,-1
0,813,7080,-1,-1,-1
0,814,2040,-1,-1,-1
0,815,2930,-1,-1,-1
0,816,2850,-1,-1,-1
0,817,1890,-1,-1,-1
0,818,4900,-1,-1,-1
0,819,3840,1,-1,-1
0,820,25100,1,-1,-1
0,821,730,-1,-1,-1
0,822,8810,-1,-1,-1
0,823,3310,-1,-1,-1
0,824,7010,-1,-1,-1
0,825,2360,1,-1,-1
0,826,5010,-1,-1,-1
0,827,13450,1,-1,-1
0,828,770,-1,-1,-1
0,829,4970,-1,-1,-1
0,830,560,1,-1,-1
0,831,2930,1,-1,-1
0,832,2940,-1,-1,-1
0,833,8440,1,-1,-1
0,834,1990,1,-1,-1
0,835,9080,-1,-1,-1
0,836,560,1,-1,-1
0,837,4050,1,-1,-1
0,838,3830,-1,-1,-1
0,839,8850,-1,-1,-1
0,840,1750,-1,-1,-1
0,841,3300,-1,-1,-1
0,842,3610,1,-1,-1
0,843,3600,-1,-1,-1
0,844,2840,-1,-1,-1
0,845,3490,1,-1,-1
0,846,5750,1,-1,-1
0,847,1420,1,-1,-1
0,848,2600,1,-1,-1
0,849,5480,-1,-1,-1
0,850,790,1,-1,-1
0,851,2170,-1,-1,-1
0,852,1340,1,-1,-1
0,853,2920,-1,-1,-1
0,854,2790,1,-1,-1
0,855,5030,-1,-1,-1
0,856,3750,-1,-1,-1
0,857,5800,-1,-1,-1
0,858,2130,-1,-1,-1
0,859,5510,1,-1,-1
0,860,4140,1,-1,-1
0,861,2580,-1,-1,-1
0,862,2620,1,-1,-1
0,863,3980,-1,-1,-1
0,864,3230,1,-1,-1
0,865,2020,1,-1,-1
0,866,2270,-1,-1,-1
0,867,2260,-1,-1,-1
0,868,10210,1,-1,-1
0,869,3900,-1,-1,-1
0,870,1790,-1,-1,-1
0,871,2030,-1,-1,-1
0,872,3670,-1,-1,-1
0,873,9680,-1,-1,-1
0,874,4330,1,-1,-1
0,875,1200,-1,-1,-1
0,876,1370,1,-1,-1
0,877,11390,1,-1,-1
0,878,6090,1,-1,-1
0,879,3970,1,-1,-1
0,880,3460,1,-1,-1
0,881,1370,-1,-1,-1
0,882,2150,1,-1,-1
0,883,9720,1,-1,-1
0,884,6770,-1,-1,-1
0,885,13580,-1,-1,-1
0,886,4180,-1,-1,-1
0,887,17340,-1,-1,-1
0,888,1400,-1,-1,-1
0,889,1080,1,-1,-1
0,890,7520,-1,-1,-1
0,891,3280,1,-1,-1
0,892,6820,-1,-1,-1
0,893,3920,-1,-1,-1
0,894,1010,-1,-1,-1
0,895,910,-1,-1,-1
0,896,2080,1,-1,-1
0,897,1310,1,-1,-1
0,898,990,-1,-1,-1
0,899,2490,-1,-1,-1
0,900,1430,-1,-1,-1
0,901,12910,-1,-1,-1
0,902,1690,-1,-1,-1
0,903,1060,-1,-1,-1
0,904,1960,1,-1,-1
0,905,7030,-1,-1,-1
0,906,4220,1,-1,-1
0,907,670,-1,-1,-1
0,908,4150,-1,-1,-1
0,909,3500,1,-1,-1
0,910,2160,1,-1,-1
0,911,2390,-1,-1,-1
0,912,3850,-1,-1,-1
0,913,11640,-1,-1,-1
0,914,5040,1,-1,-1
0,915,3150,-1,-1,-1
0,916,3270,1,-1,-1
0,917,11870,-1,-1,-1
0,918,6280,-1,-1,-1
0,919,8050,-1,-1,-1
0,920,3170,-1,-1,-1
0,921,2980,-1,-1,-1
0,922,7160,-1,-1,-1
0,923,6450,-1,-1,-1
0,924,1020,1,-1,-1
0,925,2520,1,-1,-1
0,926,1760,-1,-1,-1
0,927,10720,-1,-1,-1
0,928,1400,1,-1,-1
0,929,920,-1,-1,-1
0,930,2760,-1,-1,-1
0,931,1750,-1,-1,-1
0,932,1760,-1,-1,-1
0,933,1640,1,-1,-1
0,934,10340,1,-1,-1
0,935,11890,1,-1,-1
0,936,1360,-1,-1,-1
0,937,3160,1,-1,-1
0,938,1190,1,-1,-1
0,939,3770,1,-1,-1
0,940,6380,-1,-1,-1
0,941,4140,-1,-1,-1
0,942,1330,1,-1,-1
0,943,4440,-1,-1,-1
0,944,1200,1,-1,-1
0,945,3920,-1,-1,-1
0,946,1220,1,-1,-1
0,947,3660,-1,-1,-1
0,948,2820,1,-1,-1
0,949,2570,-1,-1,-1
0,950,1840,-1,-1,-1
0,951,3530,1,-1,-1
0,952,970,1,-1,-1
0,953,4060,1,-1,-1
0,954,1560,-1,-1,-1
0,955,3590,-1,-1,-1
0,956,1740,-1,-1,-1
0,957,3610,-1,-1,-1
0,958,3390,1,-1,-1
0,959,3880,-1,-1,-1
0,960,4350,1,-1,-1
0,961,7930,-1,-1,-1
0,962,1400,-1,-1,-1
0,963,5780,1,-1,-1
0,964,5470,1,-1,-1
0,965,5090,-1,-1,-1
0,966,11410,1,-1,-1
0,967,1080,1,-1,-1
0,968,5880,1,-1,-1
0,969,5970,1,-1,-1
0,970,10410,-1,-1,-1
0,971,490,-1,-1,-1
0,972,2870,-1,-1,-1
0,973,3400,1,-1,-1
0,974,1680,-1,-1,-1
0,975,1640,-1,-1,-1
0,976,5860,-1,-1,-1
0,977,7080,1,-1,-1
0,978,9760,-1,-1,-1
0,979,4210,1,-1,-1
0,980,680,1,-1,-1
0,981,2500,-1,-1,-1
0,982,3830,1,-1,-1
0,983,3770,-1,-1,-1
0,984,10150,-1,-1,-1
0,985,2010,-1,-1,-1
0,986,4160,1,-1,-1
0,987,2130,1,-1,-1
0,988,15640,-1,-1,-1
0,989,2880,1,-1,-1
0,990,3570,1,-1,-1
0,991,16070,-1,-1,-1
0,992,1110,1,-1,-1
0,993,2090,-1,-1,-1
0,994,4050,-1,-1,-1
0,995,2050,-1,-1,-1
0,996,2370,1,-1,-1
0,997,2760,-1,-1,-1
0,998,5410,1,-1,-1
0,999,2590,1,-1,-1
0,1000,2140,-1,-1,-1
0,1001,3810,1,-1,-1
0,1002,6740,-1,-1,-1
0,1003,3100,1,-1,-1
0,1004,3680,1,-1,-1
0,1005,3250,1,-1,-1
0,1006,8190,-1,-1,-1
0,1007,2800,1,-1,-1
0,1008,3160,1,-1,-1
0,1009,3410,1,-1,-1
0,1010,7270,-1,-1,-1
0,1011,2060,-1,-1,-1
0,1012,810,1,-1,-1
0,1013,6310,1,-1,-1
0,1014,6510,-1,-1,-1
0,1015,2580,-1,-1,-1
0,1016,9600,-1,-1,-1
0,1017,710,1,-1,-1
0,1018,940,-1,-1,-1
0,1019,1140,-1,-1,-1
0,1020,7590,-1,-1,-1
0,1021,6040,1,-1,-1
0,1022,4460,-1,-1,-1
0,1023,3330,1,-1,-1
0,1024,3650,1,-1,-1
0,1025,2930,1,-1,-1
0,1026,2890,1,-1,-1
0,1027,5120,-1,-1,-1
0,1028,1700,-1,-1,-1
0,1029,1630,-1,-1,-1
0,1030,2770,1,-1,-1
0,1031,930,-1,-1,-1
0,1032,8920,1,-1,-1
0,1033,3620,-1,-1,-1
0,1034,1060,1,-1,-1
0,1035,1260,1,-1,-1
0,1036,4260,-1,-1,-1
0,1037,2740,1,-1,-1
0,1038,1730,1,-1,-1
0,1039,2360,-1,-1,-1
0,1040,7900,-1,-1,-1
0,1041,13130,-1,-1,-1
0,1042,1710,1,-1,-1
0,1043,2110,-1,-1,-1
0,1044,1230,-1,-1,-1
0,1045,3210,-1,-1,-1
0,1046,1460,1,-1,-1
0,1047,2020,1,-1,-1
0,1048,1320,-1,-1,-1
0,1049,5760,1,-1,-1
0,1050,8080,-1,-1,-1
0,1051,6490,-1,-1,-1
0,1052,1050,1,-1,-1
0,1053,1130,1,-1,-1
0,1054,4060,-1,-1,-1
0,1055,1790,-1,-1,-1
0,1056,11080,-1,-1,-1
0,1057,11320,-1,-1,-1
0,1058,6230,-1,-1,-1
0,1059,1230,-1,-1,-1
0,1060,6860,-1,-1,-1
0,1061,11410,-1,-1,-1
0,1062,5850,1,-1,-1
0,1063,3350,-1,-1,-1
0,1064,2440,-1,-1,-1
0,1065,910,-1,-1,-1
0,1066,5450,1,-1,-1
0,1067,10570,-1,-1,-1
0,1068,2060,-1,-1,-1
0,1069,2660,-1,-1,-1
0,1070,9020,-1,-1,-1
0,1071,3500,-1,-1,-1
0,1072,3250,-1,-1,-1
0,1073,2900,-1,-1,-1
0,1074,6240,1,-1,-1
0,1075,3920,-1,-1,-1
0,1076,510,-1,-1,-1
0,1077,2130,-1,-1,-1
0,1078,5570,1,-1,-1
0,1079,9360,1,-1,-1
0,1080,2630,-1,-1,-1
0,1081,7810,-1,-1,-1
0,1082,13740,-1,-1,-1
0,1083,2890,-1,-1,-1
0,1084,620,-1,-1,-1
0,1085,2670,-1,-1,-1
0,1086,1060,-1,-1,-1
0,1087,4460,-1,-1,-1
0,1088,970,-1,-1,-1
0,1089,13280,1,-1,-1
0,1090,1440,1,-1,-1
0,1091,700,-1,-1,-1
0,1092,2420,-1,-1,-1
0,1093,9520,-1,-1,-1
0,1094,2640,1,-1,-1
0,1095,2010,1,-1,-1
0,1096,3930,-1,-1,-1
0,1097,2380,-1,-1,-1
0,1098,2890,-1,-1,-1
0,1099,2670,-1,-1,-1
0,1100,8870,1,-1,-1
0,1101,2120,-1,-1,-1
0,1102,2000,-1,-1,-1
0,1103,2710,-1,-1,-1
0,1104,1340,-1,-1,-1
0,1105,2380,1,-1,-1
0,1106,13160,1,-1,-1
0,1107,3750,1,-1,-1
0,1108,4840,-1,-1,-1
0,1109,1160,-1,-1,-1
0,1110,9400,1,-1,-1
0,1111,4040,1,-1,-1
0,1112,610,1,-1,-1
0,1113,2260,1,-1,-1
0,1114,3300,-1,-1,-1
0,1115,5110,1,-1,-1
0,1116,7440,-1,-1,-1
0,1117,4180,-1,-1,-1
0,1118,3350,1,-1,-1
0,1119,7570,-1,-1,-1
0,1120,2810,1,-1,-1
0,1121,3510,-1,-1,-1
0,1122,3670,1,-1,-1
0,1123,1330,1,-1,-1
0,1124,2790,1,-1,-1
0,1125,3820,-1,-1,-1
0,1126,1700,-1,-1,-1
0,1127,7260,-1,-1,-1
0,1128,6900,1,-1,-1
0,1129,2530,1,-1,-1
0,1130,3460,-1,-1,-1
0,1131,6160,1,-1,-1
0,1132,6650,1,-1,-1
0,1133,6540,-1,-1,-1
0,1134,1640,1,-1,-1
0,1135,1660,1,-1,-1
0,1136,3600,-1,-1,-1
0,1137,3080,1,-1,-1
0,1138,1300,-1,-1,-1
0,1139,2290,-1,-1,-1
0,1140,9690,1,-1,-1
0,1141,4320,-1,-1,-1
0,1142,2300,-1,-1,-1
0,1143,1490,-1,-1,-1
0,1144,4980,-1,-1,-1
0,1145,3460,-1,-1,-1
0,1146,4160,-1,-1,-1
0,1147,6310,-1,-1,-1
0,1148,1140,1,-1,-1
0,1149,2690,1,-1,-1
0,1150,2250,1,-1,-1
0,1151,670,1,-1,-1
0,1152,3730,1,-1,-1
0,1153,3030,-1,-1,-1
0,1154,910,-1,-1,-1
0,1155,2250,-1,-1,-1
0,1156,980,1,-1,-1
0,1157,6090,-1,-1,-1
0,1158,2550,1,-1,-1
0,1159,960,1,-1,-1
0,1160,840,-1,-1,-1
0,1161,630,-1,-1,-1
0,1162,4520,1,-1,-1
0,1163,6850,-1,-1,-1
0,1164,6810,-1,-1,-1
0,1165,2060,-1,-1,-1
0,1166,6030,1,-1,-1
0,1167,2490,1,-1,-1
0,1168,10350,-1,-1,-1
0,1169,1770,-1,-1,-1
0,1170,7170,1,-1,-1
0,1171,1760,-1,-1,-1
0,1172,2400,-1,-1,-1
0,1173,9660,-1,-1,-1
0,1174,3210,1,-1,-1
0,1175,2800,1,-1,-1
0,1176,1610,1,-1,-1
0,1177,3030,1,-1,-1
0,1178,3470,-1,-1,-1
0,1179,3370,-1,-1,-1
0,1180,2350,1,-1,-1
0,1181,2180,1,-1,-1
0,1182,1800,-1,-1,-1
0,1183,7890,-1,-1,-1
0,1184,2380,-1,-1,-1
0,1185,1860,-1,-1,-1
0,1186,6430,-1,-1,-1
0,1187,2470,-1,-1,-1
0,1188,8820,-1,-1,-1
0,1189,1480,-1,-1,-1
0,1190,6060,1,-1,-1
0,1191,3120,-1,-1,-1
0,1192,11640,-1,-1,-1
0,1193,1570,1,-1,-1
0,1194,3070,-1,-1,-1
0,1195,4680,-1,-1,-1
0,1196,4730,-1,-1,-1
0,1197,890,1,-1,-1
0,1198,1640,1,-1,-1
0,1199,6000,1,-1,-1
0,1200,610,1,0,-1
0,1201,6130,1,0,-1
0,1202,4720,-1,0,-1
0,1203,1760,-1,0,-1
0,1204,880,-1,0,-1
0,1205,7420,1,0,-1
0,1206,14890,1,0,-1
0,1207,5700,-1,0,-1
0,1208,2170,-1,0,-1
0,1209,3610,1,0,-1
0,1210,1530,-1,0,-1
0,1211,2230,-1,0,-1
0,1212,3830,1,0,-1
0,1213,2680,-1,0,-1
0,1214,3900,1,0,-1
0,1215,920,-1,0,-1
0,1216,4050,-1,0,-1
0,1217,3630,-1,0,-1
0,1218,3500,-1,0,-1
0,1219,5440,1,0,-1
0,1220,2130,1,0,-1
0,1221,4130,1,0,-1
0,1222,1360,-1,0,-1
0,1223,1570,-1,0,-1
0,1224,2160,-1,0,-1
0,1225,1080,1,0,-1
0,1226,2920,1,0,-1
0,1227,2170,-1,0,-1
0,1228,2310,-1,0,-1
0,1229,2210,-1,0,-1
0,1230,900,-1,0,-1
0,1231,3870,-1,0,-1
0,1232,810,-1,0,-1
0,1233,4120,-1,0,-1
0,1234,1640,-1,0,-1
0,1235,3550,1,0,-1
0,1236,3900,-1,0,-1
0,1237,1570,1,0,-1
0,1238,11000,1,0,-1
0,1239,5260,1,0,-1
0,1240,5940,1,0,-1
0,1241,3460,-1,0,-1
0,1242,11540,-1,0,-1
0,1243,13150,-1,0,-1
0,1244,2840,-1,0,-1
0,1245,7520,-1,0,-1
0,1246,10160,-1,0,-1
0,1247,2600,-1,0,-1
0,1248,8800,-1,0,-1
0,1249,3530,1,0,-1
0,1250,1600,-1,0,-1
0,1251,2080,-1,0,-1
0,1252,9700,1,0,-1
0,1253,780,1,0,-1
0,1254,4710,1,0,-1
0,1255,1080,-1,0,-1
0,1256,1640,-1,0,-1
0,1257,1670,-1,0,-1
0,1258,3410,1,0,-1
0,1259,6710,-1,0,-1
0,1260,16540,1,0,-1
0,1261,20030,-1,0,-1
0,1262,2310,-1,0,-1
0,1263,1380,-1,0,-1
0,1264,6410,1,0,-1
0,1265,890,1,0,-1
0,1266,6400,-1,0,-1
0,1267,4170,1,0,-1
0,1268,1720,-1,0,-1
0,1269,7120,-1,0,-1
0,1270,1760,1,0,-1
0,1271,2450,1,0,-1
0,1272,540,1,0,-1
0,1273,11830,-1,0,-1
0,1274,3110,-1,0,-1
0,1275,3310,1,0,-1
0,1276,2170,-1,0,-1
0,1277,6820,1,0,-1
0,1278,3510,-1,0,-1
0,1279,3610,1,0,-1
0,1280,1940,-1,0,-1
0,1281,11360,-1,0,-1
0,1282,7020,-1,0,-1
0,1283,10070,1,0,-1
0,1284,3490,-1,0,-1
0,1285,3710,1,0,-1
0,1286,2060,-1,0,-1
0,1287,3880,-1,0,-1
0,1288,5630,-1,0,-1
0,1289,1390,-1,0,-1
0,1290,1420,-1,0,-1
0,1291,1090,-1,0,-1
0,1292,2740,1,0,-1
0,1293,1910,1,0,-1
0,1294,8170,-1,0,-1
0,1295,1170,1,0,-1
0,1296,1950,-1,0,-1
0,1297,440,-1,0,-1
0,1298,2990,1,0,-1
0,1299,4800,-1,0,-1
0,1300,2800,-1,0,-1
0,1301,4400,1,0,-1
0,1302,2570,-1,0,-1
0,1303,3590,1,0,-1
0,1304,8870,-1,0,-1
0,1305,1830,-1,0,-1
0,1306,4980,-1,0,-1
0,1307,2370,1,0,-1
0,1308,1950,-1,0,-1
0,1309,7040,-1,0,-1
0,1310,4620,-1,0,-1
0,1311,3150,-1,0,-1
0,1312,3950,-1,0,-1
0,1313,5790,1,0,-1
0,1314,1010,1,0,-1
0,1315,1470,-1,0,-1
0,1316,5850,-1,0,-1
0,1317,6150,1,0,-1
0,1318,3360,1,0,-1
0,1319,5690,1,0,-1
0,1320,2060,-1,0,-1
0,1321,1500,-1,0,-1
0,1322,12850,1,0,-1
0,1323,9080,1,0,-1
0,1324,7390,-1,0,-1
0,1325,6920,1,0,-1
0,1326,1630,-1,0,-1
0,1327,2530,1,0,-1
0,1328,2380,1,0,-1
0,1329,4500,1,0,-1
0,1330,4540,1,0,-1
0,1331,4250,-1,0,-1
0,1332,3120,-1,0,-1
0,1333,7830,1,0,-1
0,1334,4990,1,0,-1
0,1335,1210,1,0,-1
0,1336,2460,1,0,-1
0,1337,5640,1,0,-1
0,1338,980,1,0,-1
0,1339,2640,-1,0,-1
0,1340,3060,-1,0,-1
0,1341,5940,-1,0,-1
0,1342,5260,1,0,-1
0,1343,1920,-1,0,-1
0,1344,3250,-1,0,-1
0,1345,1910,1,0,-1
0,1346,1680,-1,0,-1
0,1347,5070,1,0,-1
0,1348,19060,1,0,-1
0,1349,1690,-1,0,-1
0,1350,5300,-1,0,-1
0,1351,2270,-1,0,-1
0,1352,1950,-1,0,-1
0,1353,8370,1,0,-1
0,1354,2530,-1,0,-1
0,1355,2170,1,0,-1
0,1356,14910,-1,0,-1
0,1357,6340,1,0,-1
0,1358,2150,-1,0,-1
0,1359,600,1,0,-1
0,1360,3860,-1,0,-1
0,1361,6160,-1,0,-1
0,1362,14180,-1,0,-1
0,1363,810,1,0,-1
0,1364,2110,1,0,-1
0,1365,1930,1,0,-1
0,1366,1130,-1,0,-1
0,1367,10680,1,0,-1
0,1368,10200,1,0,-1
0,1369,7320,-1,0,-1
0,1370,5910,-1,0,-1
0,1371,1710,-1,0,-1
0,1372,860,-1,0,-1
0,1373,3620,1,0,-1
0,1374,2860,1,0,-1
0,1375,3120,1,0,-1
0,1376,1440,1,0,-1
0,1377,5060,-1,0,-1
0,1378,3870,-1,0,-1
0,1379,4210,-1,0,-1
0,1380,3240,1,0,-1
0,1381,13440,1,0,-1
0,1382,1750,1,0,-1
0,1383,2520,-1,0,-1
0,1384,5450,1,0,-1
0,1385,2080,1,0,-1
0,1386,6870,1,0,-1
0,1387,4350,-1,0,-1
0,1388,7830,-1,0,-1
0,1389,6460,-1,0,-1
0,1390,3340,1,0,-1
0,1391,2280,-1,0,-1
0,1392,14920,-1,0,-1
0,1393,1330,1,0,-1
0,1394,2880,1,0,-1
0,1395,3310,-1,0,-1
0,1396,5930,1,0,-1
0,1397,7030,1,0,-1
0,1398,3280,-1,0,-1
0,1399,6410,1,0,-1
0,1400,6570,-1,0,-1
0,1401,4380,1,0,-1
0,1402,5410,1,0,-1
0,1403,13990,-1,0,-1
0,1404,3460,-1,0,-1
0,1405,10770,1,0,-1
0,1406,1670,1,0,-1
0,1407,1880,-1,0,-1
0,1408,3640,-1,0,-1
0,1409,12380,1,0,-1
0,1410,1090,1,0,-1
0,1411,3370,-1,0,-1
0,1412,12710,-1,0,-1
0,1413,2400,-1,0,-1
0,1414,1730,1,0,-1
0,1415,14630,-1,0,-1
0,1416,2850,-1,0,-1
0,1417,4630,-1,0,-1
0,1418,4180,1,0,-1
0,1419,2830,-1,0,-1
0,1420,6450,-1,0,-1
0,1421,5290,-1,0,-1
0,1422,1810,-1,0,-1
0,1423,2390,-1,0,-1
0,1424,5980,-1,0,-1
0,1425,3600,-1,0,-1
0,1426,4250,-1,0,-1
0,1427,3950,1,0,-1
0,1428,2790,-1,0,-1
0,1429,610,1,0,-1
0,1430,2000,-1,0,-1
0,1431,790,1,0,-1
0,1432,12200,1,0,-1
0,1433,1070,1,0,-1
0,1434,4480,-1,0,-1
0,1435,3410,-1,0,-1
0,1436,5800,-1,0,-1
0,1437,4330,-1,0,-1
0,1438,4580,-1,0,-1
0,1439,8950,1,0,-1
0,1440,1240,1,0,-1
0,1441,4460,1,0,-1
0,1442,3960,-1,0,-1
0,1443,6960,1,0,-1
0,1444,4360,1,0,-1
0,1445,790,-1,0,-1
0,1446,4680,1,0,-1
0,1447,7670,1,0,-1
0,1448,9100,-1,0,-1
0,1449,3390,1,0,-1
0,1450,9720,1,0,-1
0,1451,2600,-1,0,-1
0,1452,6280,-1,0,-1
0,1453,5340,1,0,-1
0,1454,840,1,0,-1
0,1455,3930,-1,0,-1
0,1456,6600,1,0,-1
0,1457,1510,-1,0,-1
0,1458,2590,1,0,-1
0,1459,2770,-1,0,-1
0,1460,2130,-1,0,-1
0,1461,3160,1,0,-1
0,1462,3090,1,0,-1
0,1463,1220,1,0,-1
0,1464,1520,-1,0,-1
0,1465,590,1,0,-1
0,1466,3710,1,0,-1
0,1467,5690,-1,0,-1
0,1468,8480,1,0,-1
0,1469,2590,-1,0,-1
0,1470,6410,1,0,-1
0,1471,3110,1,0,-1
0,1472,4510,1,0,-1
0,1473,3370,-1,0,-1
0,1474,2000,1,0,-1
0,1475,1530,-1,0,-1
0,1476,1700,1,0,-1
0,1477,6530,-1,0,-1
0,1478,2030,1,0,-1
0,1479,2560,1,0,-1
0,1480,8180,-1,0,-1
0,1481,2400,-1,0,-1
0,1482,6830,-1,0,-1
0,1483,1740,-1,0,-1
0,1484,3590,-1,0,-1
0,1485,3260,1,0,-1
0,1486,7720,1,0,-1
0,1487,4040,1,0,-1
0,1488,2130,1,0,-1
0,1489,7930,-1,0,-1
0,1490,1690,-1,0,-1
0,1491,4880,1,0,-1
0,1492,2880,1,0,-1
0,1493,5580,-1,0,-1
0,1494,8160,-1,0,-1
0,1495,4800,-1,0,-1
0,1496,2360,-1,0,-1
0,1497,9930,-1,0,-1
0,1498,5550,1,0,-1
0,1499,2010,-1,0,-1
0,1500,8830,-1,0,-1
0,1501,14790,1,0,-1
0,1502,1470,-1,0,-1
0,1503,2920,1,0,-1
0,1504,1020,-1,0,-1
0,1505,1070,1,0,-1
0,1506,2650,-1,0,-1
0,1507,2590,-1,0,-1
0,1508,1510,-1,0,-1
0,1509,5430,-1,0,-1
0,1510,2110,-1,0,-1
0,1511,7400,-1,0,-1
0,1512,1560,-1,0,-1
0,1513,1520,-1,0,-1
0,1514,9510,-1,0,-1
0,1515,16610,-1,0,-1
0,1516,1470,-1,0,-1
0,1517,5560,-1,0,-1
0,1518,750,-1,0,-1
0,1519,3750,1,0,-1
0,1520,1330,-1,0,-1
0,1521,7150,-1,0,-1
0,1522,4440,1,0,-1
0,1523,2470,1,0,-1
0,1524,7570,1,0,-1
0,1525,10720,1,0,-1
0,1526,3000,1,0,-1
0,1527,8210,1,0,-1
0,1528,8270,-1,0,-1
0,1529,2390,1,0,-1
0,1530,1770,-1,0,-1
0,1531,5290,-1,0,-1
0,1532,820,-1,0,-1
0,1533,2260,-1,0,-1
0,1534,6100,-1,0,-1
0,1535,2410,-1,0,-1
0,1536,5680,-1,0,-1
0,1537,2530,-1,0,-1
0,1538,5160,-1,0,-1
0,1539,2330,1,0,-1
0,1540,2040,-1,0,-1
0,1541,14230,1,0,-1
0,1542,2730,-1,0,-1
0,1543,3740,-1,0,-1
0,1544,1840,-1,0,-1
0,1545,1400,1,0,-1
0,1546,1680,-1,0,-1
0,1547,7010,-1,0,-1
0,1548,2910,-1,0,-1
0,1549,3000,1,0,-1
0,1550,4820,-1,0,-1
0,1551,3910,1,0,-1
0,1552,1370,1,0,-1
0,1553,4710,1,0,-1
0,1554,6370,-1,0,-1
0,1555,5230,-1,0,-1
0,1556,1100,-1,0,-1
0,1557,1610,-1,0,-1
0,1558,2730,1,0,-1
0,1559,1720,-1,0,-1
0,1560,4100,-1,0,-1
0,1561,4240,1,0,-1
0,1562,7320,-1,0,-1
0,1563,2340,-1,0,-1
0,1564,1620,-1,0,-1
0,1565,1670,-1,0,-1
0,1566,3730,1,0,-1
0,1567,4030,-1,0,-1
0,1568,1870,1,0,-1
0,1569,3480,1,0,-1
0,1570,2020,-1,0,-1
0,1571,6480,1,0,-1
0,1572,1920,1,0,-1
0,1573,4750,-1,0,-1
0,1574,500,1,0,-1
0,1575,1170,1,0,-1
0,1576,3850,-1,0,-1
0,1577,3380,1,0,-1
0,1578,2680,-1,0,-1
0,1579,5680,1,0,-1
0,1580,4600,-1,0,-1
0,1581,1090,-1,0,-1
0,1582,750,-1,0,-1
0,1583,2250,-1,0,-1
0,1584,620,1,0,-1
0,1585,980,1,0,-1
0,1586,1470,-1,0,-1
0,1587,550,-1,0,-1
0,1588,660,1,0,-1
0,1589,4040,-1,0,-1
0,1590,4900,1,0,-1
0,1591,8880,-1,0,-1
0,1592,4920,-1,0,-1
0,1593,1520,-1,0,-1
0,1594,1430,-1,0,-1
0,1595,1360,-1,0,-1
0,1596,2460,-1,0,-1
0,1597,6130,-1,0,-1
0,1598,1350,1,0,-1
0,1599,4850,-1,0,-1
0,1600,9630,-1,-1,-1
0,1601,4380,-1,-1,-1
0,1602,6820,-1,-1,-1
0,1603,6560,1,-1,-1
0,1604,4280,-1,-1,-1
0,1605,3290,1,-1,-1
0,1606,1410,-1,-1,-1
0,1607,4000,1,-1,-1
0,1608,5320,-1,-1,-1
0,1609,1020,-1,-1,-1
0,1610,6040,1,-1,-1
0,1611,3340,1,-1,-1
0,1612,1130,1,-1,-1
0,1613,15270,1,-1,-1
0,1614,6160,-1,-1,-1
0,1615,6250,-1,-1,-1
0,1616,2030,-1,-1,-1
0,1617,4290,-1,-1,-1
0,1618,5460,1,-1,-1
0,1619,1070,1,-1,-1
0,1620,8040,1,-1,-1
0,1621,5630,1,-1,-1
0,1622,1030,1,-1,-1
0,1623,11970,1,-1,-1
0,1624,1870,1,-1,-1
0,1625,2130,1,-1,-1
0,1626,13420,1,-1,-1
0,1627,5350,1,-1,-1
0,1628,4050,-1,-1,-1
0,1629,8910,1,-1,-1
0,1630,4860,1,-1,-1
0,1631,3230,1,-1,-1
0,1632,2440,1,-1,-1
0,1633,3640,1,-1,-1
0,1634,2850,1,-1,-1
0,1635,2280,-1,-1,-1
0,1636,500,1,-1,-1
0,1637,2450,1,-1,-1
0,1638,2340,-1,-1,-1
0,1639,2290,1,-1,-1
0,1640,2350,1,-1,-1
0,1641,6480,-1,-1,-1
0,1642,1710,1,-1,-1
0,1643,4120,1,-1,-1
0,1644,1140,-1,-1,-1
0,1645,2230,1,-1,-1
0,1646,3190,1,-1,-1
0,1647,900,1,-1,-1
0,1648,5860,1,-1,-1
0,1649,3570,-1,-1,-1
0,1650,4200,1,-1,-1
0,1651,6530,-1,-1,-1
0,1652,2420,-1,-1,-1
0,1653,3210,1,-1,-1
0,1654,3420,1,-1,-1
0,1655,8190,1,-1,-1
0,1656,1960,-1,-1,-1
0,1657,4120,1,-1,-1
0,1658,16990,-1,-1,-1
0,1659,970,1,-1,-1
0,1660,2280,1,-1,-1
0,1661,2690,1,-1,-1
0,1662,4380,-1,-1,-1
0,1663,10180,1,-1,-1
0,1664,4000,1,-1,-1
0,1665,2730,-1,-1,-1
0,1666,8390,1,-1,-1
0,1667,1360,1,-1,-1
0,1668,3740,1,-1,-1
0,1669,2370,-1,-1,-1
0,1670,4330,1,-1,-1
0,1671,1450,1,-1,-1
0,1672,6360,1,-1,-1
0,1673,2200,-1,-1,-1
0,1674,3710,-1,-1,-1
0,1675,6460,1,-1,-1
0,1676,2680,1,-1,-1
0,1677,10910,-1,-1,-1
0,1678,1320,1,-1,-1
0,1679,710,1,-1,-1
0,1680,6720,-1,-1,-1
0,1681,6630,-1,-1,-1
0,1682,6910,1,-1,-1
0,1683,990,1,-1,-1
0,1684,1180,1,-1,-1
0,1685,2410,1,-1,-1
0,1686,2910,1,-1,-1
0,1687,2800,1,-1,-1
0,1688,6940,-1,-1,-1
0,1689,6240,1,-1,-1
0,1690,8740,-1,-1,-1
0,1691,2850,1,-1,-1
0,1692,5190,-1,-1,-1
0,1693,2670,1,-1,-1
0,1694,2090,-1,-1,-1
0,1695,9720,1,-1,-1
0,1696,2760,1,-1,-1
0,1697,7320,1,-1,-1
0,1698,10490,-1,-1,-1
0,1699,3320,1,-1,-1
0,1700,5710,1,-1,-1
0,1701,1220,1,-1,-1
0,1702,5490,1,-1,-1
0,1703,2210,1,-1,-1
0,1704,4990,-1,-1,-1
0,1705,1130,-1,-1,-1
0,1706,5310,1,-1,-1
0,1707,14160,-1,-1,-1
0,1708,3940,1,-1,-1
0,1709,2850,-1,-1,-1
0,1710,21110,-1,-1,-1
0,1711,1620,1,-1,-1
0,1712,860,1,-1,-1
0,1713,1970,1,-1,-1
0,1714,4120,-1,-1,-1
0,1715,2520,1,-1,-1
0,1716,1390,1,-1,-1
0,1717,2180,1,-1,-1
0,1718,7460,-1,-1,-1
0,1719,3730,1,-1,-1
0,1720,5660,1,-1,-1
0,1721,1400,1,-1,-1
0,1722,3880,-1,-1,-1
0,1723,6560,-1,-1,-1
0,1724,3150,1,-1,-1
0,1725,1700,1,-1,-1
0,1726,6570,-1,-1,-1
0,1727,2950,-1,-1,-1
0,1728,5200,1,-1,-1
0,1729,15530,1,-1,-1
0,1730,3470,-1,-1,-1
0,1731,4320,-1,-1,-1
0,1732,1930,1,-1,-1
0,1733,1450,-1,-1,-1
0,1734,11700,1,-1,-1
0,1735,2480,1,-1,-1
0,1736,5350,-1,-1,-1
0,1737,670,1,-1,-1
0,1738,2760,1,-1,-1
0,1739,980,1,-1,-1
0,1740,2470,-1,-1,-1
0,1741,590,-1,-1,-1
0,1742,5380,-1,-1,-1
0,1743,7310,1,-1,-1
0,1744,950,1,-1,-1
0,1745,3260,1,-1,-1
0,1746,3210,-1,-1,-1
0,1747,1540,-1,-1,-1
0,1748,1430,1,-1,-1
0,1749,4180,-1,-1,-1
0,1750,1380,1,-1,-1
0,1751,6910,1,-1,-1
0,1752,7270,1,-1,-1
0,1753,3580,1,-1,-1
0,1754,5170,1,-1,-1
0,1755,1360,-1,-1,-1
0,1756,1040,1,-1,-1
0,1757,1340,1,-1,-1
0,1758,1000,1,-1,-1
0,1759,3000,1,-1,-1
0,1760,7510,-1,-1,-1
0,1761,590,-1,-1,-1
0,1762,3390,1,-1,-1
0,1763,1020,1,-1,-1
0,1764,1460,-1,-1,-1
0,1765,490,1,-1,-1
0,1766,9820,-1,-1,-1
0,1767,2640,1,-1,-1
0,1768,1580,-1,-1,-1
0,1769,2050,1,-1,-1
0,1770,6870,-1,-1,-1
0,1771,2610,-1,-1,-1
0,1772,8400,-1,-1,-1
0,1773,2150,-1,-1,-1
0,1774,1570,-1,-1,-1
0,1775,1180,1,-1,-1
0,1776,1760,1,-1,-1
0,1777,14650,1,-1,-1
0,1778,1250,-1,-1,-1
0,1779,4650,1,-1,-1
0,1780,6840,-1,-1,-1
0,1781,1070,1,-1,-1
0,1782,1750,1,-1,-1
0,1783,1560,-1,-1,-1
0,1784,2820,1,-1,-1
0,1785,1950,1,-1,-1
0,1786,5130,1,-1,-1
0,1787,9670,1,-1,-1
0,1788,1790,-1,-1,-1
0,1789,5190,-1,-1,-1
0,1790,3860,-1,-1,-1
0,1791,830,-1,-1,-1
0,1792,2830,1,-1,-1
0,1793,1650,1,-1,-1
0,1794,4400,1,-1,-1
0,1795,6090,1,-1,-1
0,1796,8530,1,-1,-1
0,1797,2770,1,-1,-1
0,1798,3400,1,-1,-1
0,1799,13780,-1,-1,-1
0,1800,2540,1,-1,-1
0,1801,10890,1,-1,-1
0,1802,1450,1,-1,-1
0,1803,1100,-1,-1,-1
0,1804,5130,1,-1,-1
0,1805,680,-1,-1,-1
0,1806,9540,-1,-1,-1
0,1807,1810,1,-1,-1
0,1808,2300,1,-1,-1
0,1809,960,1,-1,-1
0,1810,7150,1,-1,-1
0,1811,2860,1,-1,-1
0,1812,2580,1,-1,-1
0,1813,6890,1,-1,-1
0,1814,4160,1,-1,-1
0,1815,10770,1,-1,-1
0,1816,8970,1,-1,-1
0,1817,3820,1,-1,-1
0,1818,1170,-1,-1,-1
0,1819,1770,1,-1,-1
0,1820,2850,1,-1,-1
0,1821,1670,1,-1,-1
0,1822,2120,-1,-1,-1
0,1823,3100,1,-1,-1
0,1824,2480,-1,-1,-1
0,1825,2560,1,-1,-1
0,1826,4010,-1,-1,-1
0,1827,5940,1,-1,-1
0,1828,2730,1,-1,-1
0,1829,1810,1,-1,-1
0,1830,1760,1,-1,-1
0,1831,3570,1,-1,-1
0,1832,2550,-1,-1,-1
0,1833,7660,-1,-1,-1
0,1834,2180,1,-1,-1
0,1835,2080,1,-1,-1
0,1836,1690,1,-1,-1
0,1837,9920,1,-1,-1
0,1838,3000,-1,-1,-1
0,1839,3200,1,-1,-1
0,1840,4010,1,-1,-1
0,1841,850,1,-1,-1
0,1842,2710,1,-1,-1
0,1843,2270,-1,-1,-1
0,1844,10790,1,-1,-1
0,1845,1440,-1,-1,-1
0,1846,1750,1,-1,-1
0,1847,2670,1,-1,-1
0,1848,3430,1,-1,-1
0,1849,5010,-1,-1,-1
0,1850,8880,1,-1,-1
0,1851,3640,1,-1,-1
0,1852,2320,-1,-1,-1
0,1853,3290,1,-1,-1
0,1854,2540,-1,-1,-1
0,1855,1410,1,-1,-1
0,1856,1080,1,-1,-1
0,1857,6330,1,-1,-1
0,1858,1000,1,-1,-1
0,1859,8100,1,-1,-1
0,1860,4750,1,-1,-1
0,1861,3410,1,-1,-1
0,1862,1070,1,-1,-1
0,1863,2130,-1,-1,-1
0,1864,1330,1,-1,-1
0,1865,4000,1,-1,-1
0,1866,3910,1,-1,-1
0,1867,1470,1,-1,-1
0,1868,5330,1,-1,-1
0,1869,6700,-1,-1,-1
0,1870,2380,1,-1,-1
0,1871,3350,-1,-1,-1
0,1872,3540,1,-1,-1
0,1873,1220,1,-1,-1
0,1874,700,1,-1,-1
0,1875,11060,1,-1,-1
0,1876,1430,1,-1,-1
0,1877,5530,1,-1,-1
0,1878,670,1,-1,-1
0,1879,1370,-1,-1,-1
0,1880,1790,-1,-1,-1
0,1881,3410,1,-1,-1
0,1882,6400,1,-1,-1
0,1883,8590,1,-1,-1
0,1884,2470,1,-1,-1
0,1885,4360,-1,-1,-1
0,1886,580,1,-1,-1
0,1887,1510,1,-1,-1
0,1888,2640,1,-1,-1
0,1889,4050,-1,-1,-1
0,1890,3650,-1,-1,-1
0,1891,5880,-1,-1,-1
0,1892,5520,1,-1,-1
0,1893,530,1,-1,-1
0,1894,1590,-1,-1,-1
0,1895,1890,-1,-1,-1
0,1896,6720,1,-1,-1
0,1897,4860,1,-1,-1
0,1898,630,1,-1,-1
0,1899,15590,-1,-1,-1
0,1900,8500,1,-1,-1
0,1901,2260,1,-1,-1
0,1902,5000,-1,-1,-1
0,1903,5140,1,-1,-1
0,1904,7140,-1,-1,-1
0,1905,5290,1,-1,-1
0,1906,4740,1,-1,-1
0,1907,940,1,-1,-1
0,1908,7700,-1,-1,-1
0,1909,6290,1,-1,-1
0,1910,5350,-1,-1,-1
0,1911,4150,1,-1,-1
0,1912,770,-1,-1,-1
0,1913,14960,1,-1,-1
0,1914,4230,-1,-1,-1
0,1915,3130,1,-1,-1
0,1916,530,1,-1,-1
0,1917,10420,-1,-1,-1
0,1918,1130,-1,-1,-1
0,1919,1780,1,-1,-1
0,1920,1640,-1,-1,-1
0,1921,1610,1,-1,-1
0,1922,3660,1,-1,-1
0,1923,8360,-1,-1,-1
0,1924,830,1,-1,-1
0,1925,3010,-1,-1,-1
0,1926,5610,-1,-1,-1
0,1927,7400,-1,-1,-1
0,1928,12630,1,-1,-1
0,1929,460,1,-1,-1
0,1930,7360,-1,-1,-1
0,1931,2820,1,-1,-1
0,1932,940,1,-1,-1
0,1933,1240,1,-1,-1
0,1934,1820,-1,-1,-1
0,1935,1650,-1,-1,-1
0,1936,5400,1,-1,-1
0,1937,2630,-1,-1,-1
0,1938,3730,-1,-1,-1
0,1939,2300,1,-1,-1
0,1940,2410,-1,-1,-1
0,1941,1810,1,-1,-1
0,1942,8600,-1,-1,-1
0,1943,950,1,-1,-1
0,1944,2220,1,-1,-1
0,1945,3020,-1,-1,-1
0,1946,440,1,-1,-1
0,1947,1190,-1,-1,-1
0,1948,8470,-1,-1,-1
0,1949,7850,-1,-1,-1
0,1950,3320,-1,-1,-1
0,1951,2880,-1,-1,-1
0,1952,1810,1,-1,-1
0,1953,1380,-1,-1,-1
0,1954,4140,1,-1,-1
0,1955,4760,-1,-1,-1
0,1956,1870,1,-1,-1
0,1957,8010,1,-1,-1
0,1958,790,1,-1,-1
0,1959,2090,1,-1,-1
0,1960,980,-1,-1,-1
0,1961,5970,1,-1,-1
0,1962,3900,1,-1,-1
0,1963,2430,1,-1,-1
0,1964,2040,1,-1,-1
0,1965,840,1,-1,-1
0,1966,5640,1,-1,-1
0,1967,1690,1,-1,-1
0,1968,1650,-1,-1,-1
0,1969,15330,-1,-1,-1
0,1970,1390,-1,-1,-1
0,1971,9840,1,-1,-1
0,1972,3420,1,-1,-1
0,1973,6890,-1,-1,-1
0,1974,3840,-1,-1,-1
0,1975,1320,-1,-1,-1
0,1976,11010,1,-1,-1
0,1977,3340,1,-1,-1
0,1978,1170,1,-1,-1
0,1979,3910,-1,-1,-1
0,1980,2290,1,-1,-1
0,1981,1830,-1,-1,-1
0,1982,5710,1,-1,-1
0,1983,7160,-1,-1,-1
0,1984,1770,1,-1,-1
0,1985,5330,1,-1,-1
0,1986,6000,1,-1,-1
0,1987,3000,1,-1,-1
0,1988,6450,-1,-1,-1
0,1989,3710,1,-1,-1
0,1990,4080,1,-1,-1
0,1991,2510,1,-1,-1
0,1992,5330,1,-1,-1
0,1993,4030,1,-1,-1
0,1994,10370,1,-1,-1
0,1995,15300,1,-1,-1
0,1996,12740,-1,-1,-1
0,1997,4330,1,-1,-1
0,1998,1570,1,-1,-1
0,1999,1490,1,-1,-1
0,2000,770,1,1,1
0,2001,3110,1,1,1
0,2002,5230,-1,1,1
0,2003,2410,1,1,1
0,2004,3780,1,1,1
0,2005,2910,-1,1,1
0,2006,8400,1,1,1
0,2007,2990,-1,1,1
0,2008,4050,-1,1,1
0,2009,2170,1,1,1
0,2010,2960,-1,1,1
0,2011,1740,1,1,1
0,2012,5120,-1,1,1
0,2013,800,1,1,1
0,2014,4790,1,1,1
0,2015,680,1,1,1
0,2016,4470,-1,1,1
0,2017,7990,1,1,1
0,2018,9870,1,1,1
0,2019,9640,-1,1,1
0,2020,5260,1,1,1
0,2021,6680,1,1,1
0,2022,7250,-1,1,1
0,2023,4920,1,1,1
0,2024,1500,1,1,1
0,2025,4400,-1,1,1
0,2026,4370,-1,1,1
0,2027,2560,-1,1,1
0,2028,3130,1,1,1
0,2029,3810,1,1,1
0,2030,3930,1,1,1
0,2031,7040,1,1,1
0,2032,2860,-1,1,1
0,2033,3690,1,1,1
0,2034,6470,1,1,1
0,2035,2620,-1,1,1
0,2036,3670,-1,1,1
0,2037,840,1,1,1
0,2038,6620,1,1,1
0,2039,2940,1,1,1
0,2040,650,1,1,1
0,2041,6220,-1,1,1
0,2042,6970,1,1,1
0,2043,2540,-1,1,1
0,2044,3120,-1,1,1
0,2045,3700,1,1,1
0,2046,1180,1,1,1
0,2047,1000,1,1,1
0,2048,5400,-1,1,1
0,2049,2160,1,1,1
0,2050,6530,1,1,1
0,2051,4830,1,1,1
0,2052,1030,-1,1,1
0,2053,2690,1,1,1
0,2054,1000,-1,1,1
0,2055,1240,-1,1,1
0,2056,9620,-1,1,1
0,2057,7920,-1,1,1
0,2058,1250,1,1,1
0,2059,11830,-1,1,1
0,2060,4740,1,1,1
0,2061,5060,-1,1,1
0,2062,2140,-1,1,1
0,2063,2570,-1,1,1
0,2064,2020,1,1,1
0,2065,1910,1,1,1
0,2066,3200,-1,1,1
0,2067,6720,1,1,1
0,2068,3230,1,1,1
0,2069,4290,1,1,1
0,2070,2590,-1,1,1
0,2071,1240,-1,1,1
0,2072,2230,-1,1,1
0,2073,6440,1,1,1
0,2074,3900,1,1,1
0,2075,10700,-1,1,1
0,2076,1980,1,1,1
0,2077,870,-1,1,1
0,2078,3640,-1,1,1
0,2079,1600,1,1,1
0,2080,6620,-1,1,1
0,2081,3870,-1,1,1
0,2082,4160,1,1,1
0,2083,1960,1,1,1
0,2084,5080,1,1,1
0,2085,3040,-1,1,1
0,2086,6530,-1,1,1
0,2087,15790,-1,1,1
0,2088,3540,-1,1,1
0,2089,2030,1,1,1
0,2090,1310,1,1,1
0,2091,1180,1,1,1
0,2092,1820,1,1,1
0,2093,710,-1,1,1
0,2094,990,-1,1,1
0,2095,3480,-1,1,1
0,2096,1330,-1,1,1
0,2097,5440,1,1,1
0,2098,1900,1,1,1
0,2099,1500,1,1,1
0,2100,5690,1,1,1
0,2101,3070,1,1,1
0,2102,5050,-1,1,1
0,2103,9600,1,1,1
0,2104,9680,1,1,1
0,2105,8420,-1,1,1
0,2106,690,1,1,1
0,2107,7400,1,1,1
0,2108,4720,1,1,1
0,2109,4040,1,1,1
0,2110,1780,1,1,1
0,2111,2370,1,1,1
0,2112,8690,1,1,1
0,2113,1260,1,1,1
0,2114,4300,-1,1,1
0,2115,15060,1,1,1
0,2116,2880,1,1,1
0,2117,13540,1,1,1
0,2118,5070,1,1,1
0,2119,4320,-1,1,1
0,2120,2140,-1,1,1
0,2121,1270,1,1,1
0,2122,3700,1,1,1
0,2123,3160,1,1,1
0,2124,1590,-1,1,1
0,2125,1540,-1,1,1
0,2126,8970,1,1,1
0,2127,17190,-1,1,1
0,2128,1220,-1,1,1
0,2129,12230,-1,1,1
0,2130,3790,1,1,1
0,2131,6390,1,1,1
0,2132,1770,1,1,1
0,2133,2530,1,1,1
0,2134,9160,-1,1,1
0,2135,1880,1,1,1
0,2136,9950,-1,1,1
0,2137,2530,-1,1,1
0,2138,950,-1,1,1
0,2139,7000,-1,1,1
0,2140,1780,-1,1,1
0,2141,4920,1,1,1
0,2142,1540,-1,1,1
0,2143,2990,-1,1,1
0,2144,1470,1,1,1
0,2145,6800,-1,1,1
0,2146,2520,-1,1,1
0,2147,18590,1,1,1
0,2148,7960,1,1,1
0,2149,1550,-1,1,1
0,2150,940,-1,1,1
0,2151,1790,-1,1,1
0,2152,3530,1,1,1
0,2153,1160,1,1,1
0,2154,10200,1,1,1
0,2155,3280,-1,1,1
0,2156,3480,-1,1,1
0,2157,17300,-1,1,1
0,2158,13350,1,1,1
0,2159,4110,1,1,1
0,2160,1660,1,1,1
0,2161,4390,1,1,1
0,2162,4700,1,1,1
0,2163,9190,-1,1,1
0,2164,4880,-1,1,1
0,2165,5160,-1,1,1
0,2166,8370,-1,1,1
0,2167,5350,1,1,1
0,2168,6640,1,1,1
0,2169,950,-1,1,1
0,2170,1950,1,1,1
0,2171,1960,1,1,1
0,2172,1060,-1,1,1
0,2173,10170,1,1,1
0,2174,5250,-1,1,1
0,2175,2330,1,1,1
0,2176,6480,-1,1,1
0,2177,6850,-1,1,1
0,2178,3800,1,1,1
0,2179,5890,-1,1,1
0,2180,4850,-1,1,1
0,2181,2200,1,1,1
0,2182,590,1,1,1
0,2183,1040,-1,1,1
0,2184,1390,1,1,1
0,2185,4270,-1,1,1
0,2186,2840,1,1,1
0,2187,5410,1,1,1
0,2188,1590,1,1,1
0,2189,1560,-1,1,1
0,2190,5750,-1,1,1
0,2191,1250,-1,1,1
0,2192,8300,-1,1,1
0,2193,3890,-1,1,1
0,2194,5960,1,1,1
0,2195,1800,1,1,1
0,2196,4440,1,1,1
0,2197,1550,-1,1,1
0,2198,3790,-1,1,1
0,2199,1140,-1,1,1
0,2200,5420,-1,1,1
0,2201,780,-1,1,1
0,2202,3380,-1,1,1
0,2203,1360,-1,1,1
0,2204,7550,1,1,1
0,2205,900,1,1,1
0,2206,8520,1,1,1
0,2207,7340,1,1,1
0,2208,5630,1,1,1
0,2209,740,1,1,1
0,2210,2350,-1,1,1
0,2211,720,1,1,1
0,2212,5660,-1,1,1
0,2213,2430,1,1,1
0,2214,1150,1,1,1
0,2215,1720,1,1,1
0,2216,2970,-1,1,1
0,2217,4080,1,1,1
0,2218,2830,-1,1,1
0,2219,1710,1,1,1
0,2220,4620,-1,1,1
0,2221,4240,-1,1,1
0,2222,1840,-1,1,1
0,2223,3980,1,1,1
0,2224,1340,1,1,1
0,2225,3080,1,1,1
0,2226,5930,-1,1,1
0,2227,5080,-1,1,1
0,2228,3780,1,1,1
0,2229,2680,-1,1,1
0,2230,3440,1,1,1
0,2231,1240,1,1,1
0,2232,3470,1,1,1
0,2233,1020,1,1,1
0,2234,540,-1,1,1
0,2235,4540,-1,1,1
0,2236,7580,1,1,1
0,2237,1540,1,1,1
0,2238,5340,-1,1,1
0,2239,2870,1,1,1
0,2240,2590,1,1,1
0,2241,720,1,1,1
0,2242,3910,1,1,1
0,2243,1130,-1,1,1
0,2244,3310,1,1,1
0,2245,1460,-1,1,1
0,2246,6260,1,1,1
0,2247,5910,-1,1,1
0,2248,5760,-1,1,1
0,2249,3060,1,1,1
0,2250,8220,1,1,1
0,2251,5920,-1,1,1
0,2252,4510,1,1,1
0,2253,4910,-1,1,1
0,2254,3780,-1,1,1
0,2255,7760,-1,1,1
0,2256,2090,-1,1,1
0,2257,2090,-1,1,1
0,2258,1300,-1,1,1
0,2259,7090,-1,1,1
0,2260,6470,1,1,1
0,2261,3580,1,1,1
0,2262,810,-1,1,1
0,2263,2070,1,1,1
0,2264,6350,-1,1,1
0,2265,5070,1,1,1
0,2266,4950,1,1,1
0,2267,6330,-1,1,1
0,2268,2050,1,1,1
0,2269,7820,1,1,1
0,2270,4080,1,1,1
0,2271,5830,1,1,1
0,2272,6140,-1,1,1
0,2273,3540,1,1,1
0,2274,840,-1,1,1
0,2275,2640,1,1,1
0,2276,10090,1,1,1
0,2277,1330,-1,1,1
0,2278,1070,1,1,1
0,2279,4430,-1,1,1
0,2280,2870,-1,1,1
0,2281,5910,-1,1,1
0,2282,6570,-1,1,1
0,2283,1480,-1,1,1
0,2284,920,-1,1,1
0,2285,2440,1,1,1
0,2286,1030,1,1,1
0,2287,4610,-1,1,1
0,2288,1700,-1,1,1
0,2289,1100,1,1,1
0,2290,3640,-1,1,1
0,2291,360,-1,1,1
0,2292,1090,-1,1,1
0,2293,360,1,1,1
0,2294,2460,-1,1,1
0,2295,2280,1,1,1
0,2296,19100,-1,1,1
0,2297,2420,1,1,1
0,2298,4610,-1,1,1
0,2299,2690,-1,1,1
0,2300,5220,-1,1,1
0,2301,7740,-1,1,1
0,2302,5430,-1,1,1
0,2303,6140,-1,1,1
0,2304,790,-1,1,1
0,2305,5540,-1,1,1
0,2306,6490,-1,1,1
0,2307,8140,1,1,1
0,2308,1810,-1,1,1
0,2309,1370,-1,1,1
0,2310,490,1,1,1
0,2311,720,-1,1,1
0,2312,3150,-1,1,1
0,2313,2040,1,1,1
0,2314,4570,-1,1,1
0,2315,1040,1,1,1
0,2316,1980,1,1,1
0,2317,2060,1,1,1
0,2318,1230,1,1,1
0,2319,1760,1,1,1
0,2320,2660,-1,1,1
0,2321,3190,-1,1,1
0,2322,18970,-1,1,1
0,2323,4410,1,1,1
0,2324,21550,-1,1,1
0,2325,3680,-1,1,1
0,2326,1170,-1,1,1
0,2327,1450,-1,1,1
0,2328,5180,1,1,1
0,2329,2050,1,1,1
0,2330,4960,1,1,1
0,2331,1610,1,1,1
0,2332,3730,1,1,1
0,2333,5480,1,1,1
0,2334,6400,1,1,1
0,2335,1400,1,1,1
0,2336,7120,1,1,1
0,2337,1230,-1,1,1
0,2338,3890,-1,1,1
0,2339,15120,1,1,1
0,2340,1770,1,1,1
0,2341,1440,-1,1,1
0,2342,7810,-1,1,1
0,2343,910,1,1,1
0,2344,7310,-1,1,1
0,2345,3950,-1,1,1
0,2346,16530,1,1,1
0,2347,4860,1,1,1
0,2348,1700,1,1,1
0,2349,13490,-1,1,1
0,2350,8490,1,1,1
0,2351,10350,-1,1,1
0,2352,5600,-1,1,1
0,2353,2290,1,1,1
0,2354,1380,-1,1,1
0,2355,1970,-1,1,1
0,2356,7250,-1,1,1
0,2357,1210,-1,1,1
0,2358,12740,-1,1,1
0,2359,4100,-1,1,1
0,2360,5830,1,1,1
0,2361,9200,-1,1,1
0,2362,9070,-1,1,1
0,2363,2000,1,1,1
0,2364,2140,-1,1,1
0,2365,5800,-1,1,1
0,2366,9160,1,1,1
0,2367,1520,-1,1,1
0,2368,6400,-1,1,1
0,2369,3370,1,1,1
0,2370,3390,1,1,1
0,2371,3920,1,1,1
0,2372,3110,1,1,1
0,2373,1270,1,1,1
0,2374,8090,-1,1,1
0,2375,2450,1,1,1
0,2376,1510,-1,1,1
0,2377,1900,1,1,1
0,2378,980,1,1,1
0,2379,9850,-1,1,1
0,2380,2580,-1,1,1
0,2381,2120,1,1,1
0,2382,4950,1,1,1
0,2383,7910,1,1,1
0,2384,2320,1,1,1
0,2385,5670,1,1,1
0,2386,890,1,1,1
0,2387,3360,-1,1,1
0,2388,1730,1,1,1
0,2389,640,1,1,1
0,2390,2530,-1,1,1
0,2391,4200,-1,1,1
0,2392,3660,1,1,1
0,2393,4970,-1,1,1
0,2394,2850,-1,1,1
0,2395,1140,-1,1,1
0,2396,4610,1,1,1
0,2397,2150,-1,1,1
0,2398,2000,1,1,1
0,2399,890,1,1,1
0,2400,3440,-1,0,0
0,2401,7400,1,0,0
0,2402,11470,1,0,0
0,2403,3440,1,0,0
0,2404,3530,1,0,0
0,2405,860,-1,0,0
0,2406,3050,1,0,0
0,2407,13610,1,0,0
0,2408,720,-1,0,0
0,2409,14050,-1,0,0
0,2410,6760,-1,0,0
0,2411,1040,1,0,0
0,2412,2210,-1,0,0
0,2413,2070,-1,0,0
0,2414,1870,-1,0,0
0,2415,400,-1,0,0
0,2416,8520,1,0,0
0,2417,7340,-1,0,0
0,2418,4040,-1,0,0
0,2419,11200,1,0,0
0,2420,7300,-1,0,0
0,2421,2280,1,0,0
0,2422,1220,-1,0,0
0,2423,1240,-1,0,0
0,2424,680,1,0,0
0,2425,720,1,0,0
0,2426,9580,1,0,0
0,2427,5390,-1,0,0
0,2428,6300,1,0,0
0,2429,3590,-1,0,0
0,2430,3630,1,0,0
0,2431,2700,1,0,0
0,2432,8050,-1,0,0
0,2433,830,-1,0,0
0,2434,1640,-1,0,0
0,2435,690,-1,0,0
0,2436,4120,-1,0,0
0,2437,7530,-1,0,0
0,2438,2990,1,0,0
0,2439,1140,-1,0,0
0,2440,1110,-1,0,0
0,2441,2990,-1,0,0
0,2442,4050,1,0,0
0,2443,5710,-1,0,0
0,2444,3950,-1,0,0
0,2445,680,1,0,0
0,2446,3830,1,0,0
0,2447,1840,1,0,0
0,2448,2440,-1,0,0
0,2449,6040,1,0,0
0,2450,3970,-1,0,0
0,2451,2880,1,0,0
0,2452,1500,1,0,0
0,2453,2670,-1,0,0
0,2454,1910,1,0,0
0,2455,2510,-1,0,0
0,2456,4710,-1,0,0
0,2457,780,-1,0,0
0,2458,2160,1,0,0
0,2459,11860,-1,0,0
0,2460,2660,-1,0,0
0,2461,8160,1,0,0
0,2462,4880,1,0,0
0,2463,1460,-1,0,0
0,2464,12440,-1,0,0
0,2465,940,-1,0,0
0,2466,1620,-1,0,0
0,2467,1660,1,0,0
0,2468,4170,1,0,0
0,2469,1470,-1,0,0
0,2470,2170,1,0,0
0,2471,5670,-1,0,0
0,2472,1170,-1,0,0
0,2473,1090,1,0,0
0,2474,2660,1,0,0
0,2475,12030,-1,0,0
0,2476,640,-1,0,0
0,2477,6280,-1,0,0
0,2478,12600,-1,0,0
0,2479,7140,-1,0,0
0,2480,2990,-1,0,0
0,2481,4400,1,0,0
0,2482,2050,1,0,0
0,2483,19210,1,0,0
0,2484,4000,-1,0,0
0,2485,980,-1,0,0
0,2486,3420,1,0,0
0,2487,500,1,0,0
0,2488,1800,1,0,0
0,2489,2400,-1,0,0
0,2490,5690,-1,0,0
0,2491,1300,-1,0,0
0,2492,690,1,0,0
0,2493,16940,1,0,0
0,2494,3040,-1,0,0
0,2495,1680,-1,0,0
0,2496,1680,-1,0,0
0,2497,11410,1,0,0
0,2498,6900,-1,0,0
0,2499,2760,-1,0,0
0,2500,2300,1,0,0
0,2501,2100,-1,0,0
0,2502,2520,1,0,0
0,2503,7650,-1,0,0
0,2504,12570,1,0,0
0,2505,1660,1,0,0
0,2506,5750,1,0,0
0,2507,4850,1,0,0
0,2508,10960,1,0,0
0,2509,2380,-1,0,0
0,2510,3820,1,0,0
0,2511,8030,-1,0,0
0,2512,1330,1,0,0
0,2513,1830,-1,0,0
0,2514,820,1,0,0
0,2515,13490,1,0,0
0,2516,30170,-1,0,0
0,2517,2830,1,0,0
0,2518,3360,1,0,0
0,2519,3190,-1,0,0
0,2520,5010,-1,0,0
0,2521,14700,1,0,0
0,2522,5880,1,0,0
0,2523,4410,1,0,0
0,2524,4340,1,0,0
0,2525,16690,1,0,0
0,2526,2710,-1,0,0
0,2527,4330,-1,0,0
0,2528,3600,1,0,0
0,2529,1050,1,0,0
0,2530,1530,-1,0,0
0,2531,6020,1,0,0
0,2532,5370,1,0,0
0,2533,1750,-1,0,0
0,2534,1500,-1,0,0
0,2535,2940,-1,0,0
0,2536,5950,1,0,0
0,2537,2130,1,0,0
0,2538,1360,1,0,0
0,2539,470,1,0,0
0,2540,11910,-1,0,0
0,2541,2140,1,0,0
0,2542,8350,-1,0,0
0,2543,8540,1,0,0
0,2544,700,-1,0,0
0,2545,6420,1,0,0
0,2546,6660,1,0,0
0,2547,1940,1,0,0
0,2548,1830,1,0,0
0,2549,550,-1,0,0
0,2550,2990,-1,0,0
0,2551,11630,1,0,0
0,2552,10360,1,0,0
0,2553,1350,1,0,0
0,2554,4370,-1,0,0
0,2555,7420,-1,0,0
0,2556,760,-1,0,0
0,2557,7520,1,0,0
0,2558,3270,-1,0,0
0,2559,6620,-1,0,0
0,2560,2090,-1,0,0
0,2561,2080,1,0,0
0,2562,3590,1,0,0
0,2563,940,1,0,0
0,2564,1120,-1,0,0
0,2565,2370,1,0,0
0,2566,11670,-1,0,0
0,2567,6050,-1,0,0
0,2568,750,1,0,0
0,2569,1680,1,0,0
0,2570,4260,1,0,0
0,2571,3880,-1,0,0
0,2572,3560,-1,0,0
0,2573,1890,1,0,0
0,2574,1550,1,0,0
0,2575,640,1,0,0
0,2576,3100,-1,0,0
0,2577,9780,1,0,0
0,2578,1870,1,0,0
0,2579,2070,-1,0,0
0,2580,6850,-1,0,0
0,2581,2240,-1,0,0
0,2582,7440,-1,0,0
0,2583,3790,1,0,0
0,2584,6500,1,0,0
0,2585,4520,-1,0,0
0,2586,3790,1,0,0
0,2587,6200,-1,0,0
0,2588,2030,1,0,0
0,2589,2750,1,0,0
0,2590,2840,1,0,0
0,2591,3210,1,0,0
0,2592,3150,-1,0,0
0,2593,3860,-1,0,0
0,2594,4390,-1,0,0
0,2595,8130,1,0,0
0,2596,810,-1,0,0
0,2597,960,1,0,0
0,2598,1910,1,0,0
0,2599,3970,1,0,0
0,2600,2490,-1,0,0
0,2601,12100,1,0,0
0,2602,5610,-1,0,0
0,2603,4380,1,0,0
0,2604,2970,-1,0,0
0,2605,1050,1,0,0
0,2606,1220,-1,0,0
0,2607,780,-1,0,0
0,2608,2320,-1,0,0
0,2609,1990,-1,0,0
0,2610,3960,-1,0,0
0,2611,2180,-1,0,0
0,2612,2590,1,0,0
0,2613,1320,-1,0,0
0,2614,1750,1,0,0
0,2615,2040,-1,0,0
0,2616,2970,1,0,0
0,2617,1510,1,0,0
0,2618,7290,-1,0,0
0,2619,830,1,0,0
0,2620,8890,1,0,0
0,2621,10300,1,0,0
0,2622,640,1,0,0
0,2623,5260,-1,0,0
0,2624,7940,1,0,0
0,2625,1060,1,0,0
0,2626,3190,1,0,0
0,2627,850,-1,0,0
0,2628,1550,-1,0,0
0,2629,670,1,0,0
0,2630,4340,-1,0,0
0,2631,4730,1,0,0
0,2632,2600,-1,0,0
0,2633,6190,-1,0,0
0,2634,3080,-1,0,0
0,2635,1700,-1,0,0
0,2636,1190,1,0,0
0,2637,3900,-1,0,0
0,2638,2300,1,0,0
0,2639,15770,-1,0,0
0,2640,10750,1,0,0
0,2641,1800,-1,0,0
0,2642,1830,-1,0,0
0,2643,5880,-1,0,0
0,2644,2020,-1,0,0
0,2645,1430,-1,0,0
0,2646,1500,1,0,0
0,2647,1550,-1,0,0
0,2648,5880,-1,0,0
0,2649,1670,1,0,0
0,2650,2070,1,0,0
0,2651,6010,-1,0,0
0,2652,3020,1,0,0
0,2653,7070,1,0,0
0,2654,2490,-1,0,0
0,2655,940,1,0,0
0,2656,4290,1,0,0
0,2657,3810,1,0,0
0,2658,1580,1,0,0
0,2659,4570,1,0,0
0,2660,670,1,0,0
0,2661,12350,1,0,0
0,2662,1640,-1,0,0
0,2663,8280,1,0,0
0,2664,4240,1,0,0
0,2665,1640,1,0,0
0,2666,930,-1,0,0
0,2667,2730,-1,0,0
0,2668,2700,-1,0,0
0,2669,5240,1,0,0
0,2670,3960,1,0,0
0,2671,650,1,0,0
0,2672,9340,-1,0,0
0,2673,2970,-1,0,0
0,2674,2940,-1,0,0
0,2675,3300,1,0,0
0,2676,4870,-1,0,0
0,2677,9460,-1,0,0
0,2678,1350,1,0,0
0,2679,900,-1,0,0
0,2680,1590,1,0,0
0,2681,6370,-1,0,0
0,2682,9150,1,0,0
0,2683,1750,-1,0,0
0,2684,2990,1,0,0
0,2685,1080,-1,0,0
0,2686,2720,1,0,0
0,2687,11050,1,0,0
0,2688,9750,-1,0,0
0,2689,760,-1,0,0
0,2690,1910,-1,0,0
0,2691,3850,1,0,0
0,2692,1240,1,0,0
0,2693,8850,-1,0,0
0,2694,4730,1,0,0
0,2695,7020,1,0,0
0,2696,10320,-1,0,0
0,2697,810,-1,0,0
0,2698,2080,1,0,0
0,2699,1580,1,0,0
0,2700,3120,-1,0,0
0,2701,5600,-1,0,0
0,2702,3380,1,0,0
0,2703,6010,1,0,0
0,2704,6700,1,0,0
0,2705,1980,-1,0,0
0,2706,730,1,0,0
0,2707,3550,-1,0,0
0,2708,4880,1,0,0
0,2709,3260,-1,0,0
0,2710,2920,1,0,0
0,2711,1180,1,0,0
0,2712,9320,-1,0,0
0,2713,1900,1,0,0
0,2714,730,-1,0,0
0,2715,7080,1,0,0
0,2716,1880,1,0,0
0,2717,4830,1,0,0
0,2718,13820,-1,0,0
0,2719,1240,1,0,0
0,2720,7770,-1,0,0
0,2721,1310,1,0,0
0,2722,2210,1,0,0
0,2723,5550,1,0,0
0,2724,5180,-1,0,0
0,2725,940,1,0,0
0,2726,4890,-1,0,0
0,2727,3210,-1,0,0
0,2728,2850,1,0,0
0,2729,1660,-1,0,0
0,2730,2900,-1,0,0
0,2731,3080,1,0,0
0,2732,2130,1,0,0
0,2733,6620,1,0,0
0,2734,4530,1,0,0
0,2735,820,1,0,0
0,2736,2320,-1,0,0
0,2737,7740,1,0,0
0,2738,3480,1,0,0
0,2739,10750,-1,0,0
0,2740,1220,1,0,0
0,2741,1620,-1,0,0
0,2742,2680,1,0,0
0,2743,5550,1,0,0
0,2744,1820,1,0,0
0,2745,1040,-1,0,0
0,2746,6800,-1,0,0
0,2747,2760,-1,0,0
0,2748,9470,-1,0,0
0,2749,1260,-1,0,0
0,2750,2270,-1,0,0
0,2751,15870,1,0,0
0,2752,2030,-1,0,0
0,2753,1790,1,0,0
0,2754,4440,-1,0,0
0,2755,700,1,0,0
0,2756,3020,-1,0,0
0,2757,2900,-1,0,0
0,2758,7750,-1,0,0
0,2759,3690,-1,0,0
0,2760,5830,-1,0,0
0,2761,2630,1,0,0
0,2762,2830,-1,0,0
0,2763,12150,1,0,0
0,2764,810,1,0,0
0,2765,730,1,0,0
0,2766,910,1,0,0
0,2767,4200,-1,0,0
0,2768,1660,1,0,0
0,2769,1990,1,0,0
0,2770,5860,-1,0,0
0,2771,860,-1,0,0
0,2772,9150,-1,0,0
0,2773,4650,1,0,0
0,2774,7290,-1,0,0
0,2775,3580,-1,0,0
0,2776,1720,-1,0,0
0,2777,2350,1,0,0
0,2778,1780,-1,0,0
0,2779,11410,-1,0,0
0,2780,2110,-1,0,0
0,2781,640,-1,0,0
0,2782,4870,1,0,0
0,2783,2040,-1,0,0
0,2784,1400,1,0,0
0,2785,1750,1,0,0
0,2786,1150,-1,0,0
0,2787,5730,1,0,0
0,2788,2080,1,0,0
0,2789,3000,-1,0,0
0,2790,6880,-1,0,0
0,2791,5260,1,0,0
0,2792,3040,-1,0,0
0,2793,3600,-1,0,0
0,2794,2410,1,0,0
0,2795,20340,1,0,0
0,2796,9080,1,0,0
0,2797,4440,-1,0,0
0,2798,5000,1,0,0
0,2799,1490,1,0,0
0,2800,6910,-1,1,0
0,2801,3650,1,1,0
0,2802,3410,-1,1,0
0,2803,6320,-1,1,0
0,2804,22060,-1,1,0
0,2805,7480,1,1,0
0,2806,3790,-1,1,0
0,2807,2400,-1,1,0
0,2808,1340,1,1,0
0,2809,3210,-1,1,0
0,2810,2870,-1,1,0
0,2811,2120,-1,1,0
0,2812,3240,-1,1,0
0,2813,890,-1,1,0
0,2814,12650,-1,1,0
0,2815,2310,1,1,0
0,2816,3650,1,1,0
0,2817,4720,-1,1,0
0,2818,840,-1,1,0
0,2819,1600,-1,1,0
0,2820,2030,-1,1,0
0,2821,5030,1,1,0
0,2822,7350,-1,1,0
0,2823,3780,1,1,0
0,2824,2900,-1,1,0
0,2825,1960,-1,1,0
0,2826,3550,-1,1,0
0,2827,5800,-1,1,0
0,2828,2520,1,1,0
0,2829,5890,1,1,0
0,2830,3670,1,1,0
0,2831,2740,1,1,0
0,2832,5460,-1,1,0
0,2833,7470,-1,1,0
0,2834,2320,-1,1,0
0,2835,5370,-1,1,0
0,2836,2150,-1,1,0
0,2837,6510,1,1,0
0,2838,3370,-1,1,0
0,2839,1190,-1,1,0
0,2840,3590,-1,1,0
0,2841,3070,-1,1,0
0,2842,1090,-1,1,0
0,2843,790,-1,1,0
0,2844,2530,1,1,0
0,2845,860,-1,1,0
0,2846,11280,1,1,0
0,2847,1350,1,1,0
0,2848,1440,1,1,0
0,2849,6210,-1,1,0
0,2850,2990,-1,1,0
0,2851,1270,-1,1,0
0,2852,3420,-1,1,0
0,2853,2390,1,1,0
0,2854,2900,-1,1,0
0,2855,13150,-1,1,0
0,2856,4420,-1,1,0
0,2857,10150,1,1,0
0,2858,4470,-1,1,0
0,2859,3900,-1,1,0
0,2860,2260,-1,1,0
0,2861,2190,1,1,0
0,2862,3490,-1,1,0
0,2863,1890,-1,1,0
0,2864,9900,-1,1,0
0,2865,2210,-1,1,0
0,2866,5290,1,1,0
0,2867,1580,-1,1,0
0,2868,8630,1,1,0
0,2869,850,-1,1,0
0,2870,1980,-1,1,0
0,2871,5370,-1,1,0
0,2872,8980,-1,1,0
0,2873,6810,1,1,0
0,2874,12220,-1,1,0
0,2875,1390,-1,1,0
0,2876,1780,-1,1,0
0,2877,1960,-1,1,0
0,2878,7740,-1,1,0
0,2879,2860,-1,1,0
0,2880,1460,1,1,0
0,2881,4340,1,1,0
0,2882,10140,1,1,0
0,2883,650,1,1,0
0,2884,1940,-1,1,0
0,2885,3810,1,1,0
0,2886,4660,-1,1,0
0,2887,1960,1,1,0
0,2888,2130,1,1,0
0,2889,4310,1,1,0
0,2890,3140,-1,1,0
0,2891,2450,-1,1,0
0,2892,2730,-1,1,0
0,2893,3850,1,1,0
0,2894,4960,-1,1,0
0,2895,4710,1,1,0
0,2896,2250,1,1,0
0,2897,9030,1,1,0
0,2898,440,-1,1,0
0,2899,3050,-1,1,0
0,2900,220,-1,1,0
0,2901,2610,-1,1,0
0,2902,3550,-1,1,0
0,2903,3930,1,1,0
0,2904,19550,-1,1,0
0,2905,1540,1,1,0
0,2906,820,-1,1,0
0,2907,4070,-1,1,0
0,2908,1540,-1,1,0
0,2909,4380,-1,1,0
0,2910,970,-1,1,0
0,2911,3350,1,1,0
0,2912,3110,1,1,0
0,2913,4520,1,1,0
0,2914,3680,1,1,0
0,2915,3400,-1,1,0
0,2916,490,-1,1,0
0,2917,3280,1,1,0
0,2918,850,-1,1,0
0,2919,2950,-1,1,0
0,2920,7840,-1,1,0
0,2921,950,-1,1,0
0,2922,900,-1,1,0
0,2923,3360,-1,1,0
0,2924,1090,-1,1,0
0,2925,3630,1,1,0
0,2926,4200,-1,1,0
0,2927,1350,-1,1,0
0,2928,7330,-1,1,0
0,2929,7690,-1,1,0
0,2930,2000,-1,1,0
0,2931,7840,1,1,0
0,2932,1550,-1,1,0
0,2933,1160,-1,1,0
0,2934,1750,-1,1,0
0,2935,2230,1,1,0
0,2936,4960,-1,1,0
0,2937,3270,1,1,0
0,2938,8080,-1,1,0
0,2939,9180,-1,1,0
0,2940,5700,-1,1,0
0,2941,930,-1,1,0
0,2942,5790,-1,1,0
0,2943,4690,-1,1,0
0,2944,3100,-1,1,0
0,2945,2880,1,1,0
0,2946,6600,-1,1,0
0,2947,1810,-1,1,0
0,2948,7930,1,1,0
0,2949,4190,-1,1,0
0,2950,1340,-1,1,0
0,2951,4240,-1,1,0
0,2952,17660,-1,1,0
0,2953,1690,-1,1,0
0,2954,560,-1,1,0
0,2955,4110,-1,1,0
0,2956,5750,-1,1,0
0,2957,2200,-1,1,0
0,2958,1120,-1,1,0
0,2959,7210,-1,1,0
0,2960,1340,1,1,0
0,2961,2040,-1,1,0
0,2962,1090,-1,1,0
0,2963,4250,-1,1,0
0,2964,1310,-1,1,0
0,2965,2150,-1,1,0
0,2966,8670,-1,1,0
0,2967,2120,1,1,0
0,2968,3450,-1,1,0
0,2969,2660,-1,1,0
0,2970,1210,-1,1,0
0,2971,520,-1,1,0
0,2972,8790,-1,1,0
0,2973,4850,-1,1,0
0,2974,4640,-1,1,0
0,2975,2760,1,1,0
0,2976,3480,-1,1,0
0,2977,1850,1,1,0
0,2978,4380,-1,1,0
0,2979,1710,-1,1,0
0,2980,3130,-1,1,0
0,2981,4560,-1,1,0
0,2982,1660,-1,1,0
0,2983,5510,-1,1,0
0,2984,3870,-1,1,0
0,2985,8940,-1,1,0
0,2986,1890,-1,1,0
0,2987,3130,-1,1,0
0,2988,1910,-1,1,0
0,2989,1580,-1,1,0
0,2990,1630,-1,1,0
0,2991,3180,1,1,0
0,2992,1420,-1,1,0
0,2993,5370,-1,1,0
0,2994,7240,-1,1,0
0,2995,2540,-1,1,0
0,2996,1550,1,1,0
0,2997,6690,-1,1,0
0,2998,3620,-1,1,0
0,2999,2050,-1,1,0
0,3000,920,-1,1,0
0,3001,1950,-1,1,0
0,3002,8330,1,1,0
0,3003,910,1,1,0
0,3004,2890,-1,1,0
0,3005,2410,-1,1,0
0,3006,750,1,1,0
0,3007,4370,-1,1,0
0,3008,520,1,1,0
0,3009,5270,1,1,0
0,3010,9510,-1,1,0
0,3011,8630,1,1,0
0,3012,3260,-1,1,0
0,3013,5840,-1,1,0
0,3014,2700,1,1,0
0,3015,3720,-1,1,0
0,3016,10020,1,1,0
0,3017,800,1,1,0
0,3018,3770,-1,1,0
0,3019,4390,-1,1,0
0,3020,9050,-1,1,0
0,3021,4080,-1,1,0
0,3022,1570,-1,1,0
0,3023,6770,-1,1,0
0,3024,1950,-1,1,0
0,3025,4180,-1,1,0
0,3026,1710,-1,1,0
0,3027,840,-1,1,0
0,3028,11950,-1,1,0
0,3029,4390,-1,1,0
0,3030,1070,-1,1,0
0,3031,9420,1,1,0
0,3032,1260,-1,1,0
0,3033,5610,-1,1,0
0,3034,3530,-1,1,0
0,3035,8790,-1,1,0
0,3036,1000,-1,1,0
0,3037,2640,-1,1,0
0,3038,5330,-1,1,0
0,3039,2100,-1,1,0
0,3040,760,-1,1,0
0,3041,3940,-1,1,0
0,3042,560,1,1,0
0,3043,10570,-1,1,0
0,3044,600,-1,1,0
0,3045,4970,1,1,0
0,3046,3330,1,1,0
0,3047,1800,1,1,0
0,3048,2890,-1,1,0
0,3049,3290,-1,1,0
0,3050,710,-1,1,0
0,3051,1650,-1,1,0
0,3052,2930,-1,1,0
0,3053,1560,-1,1,0
0,3054,2170,-1,1,0
0,3055,5460,-1,1,0
0,3056,1200,-1,1,0
0,3057,1500,1,1,0
0,3058,8470,-1,1,0
0,3059,1760,1,1,0
0,3060,2700,-1,1,0
0,3061,3120,1,1,0
0,3062,1810,1,1,0
0,3063,2320,-1,1,0
0,3064,4120,-1,1,0
0,3065,2630,-1,1,0
0,3066,860,-1,1,0
0,3067,6570,1,1,0
0,3068,5290,-1,1,0
0,3069,3880,-1,1,0
0,3070,1780,-1,1,0
0,3071,11160,-1,1,0
0,3072,3500,-1,1,0
0,3073,5210,-1,1,0
0,3074,4040,-1,1,0
0,3075,3260,-1,1,0
0,3076,1950,-1,1,0
0,3077,2800,-1,1,0
0,3078,1640,-1,1,0
0,3079,1700,-1,1,0
0,3080,3180,-1,1,0
0,3081,2380,-1,1,0
0,3082,2380,1,1,0
0,3083,7230,-1,1,0
0,3084,6270,-1,1,0
0,3085,1380,-1,1,0
0,3086,2350,1,1,0
0,3087,9670,-1,1,0
0,3088,1540,-1,1,0
0,3089,7470,-1,1,0
0,3090,6250,-1,1,0
0,3091,10170,-1,1,0
0,3092,8760,-1,1,0
0,3093,3160,-1,1,0
0,3094,3180,-1,1,0
0,3095,1430,-1,1,0
0,3096,7160,1,1,0
0,3097,3090,-1,1,0
0,3098,10460,-1,1,0
0,3099,1190,-1,1,0
0,3100,2850,-1,1,0
0,3101,1090,-1,1,0
0,3102,780,-1,1,0
0,3103,1020,-1,1,0
0,3104,610,-1,1,0
0,3105,1720,1,1,0
0,3106,2620,1,1,0
0,3107,3890,1,1,0
0,3108,3820,-1,1,0
0,3109,520,-1,1,0
0,3110,4310,-1,1,0
0,3111,2080,1,1,0
0,3112,2600,-1,1,0
0,3113,11230,-1,1,0
0,3114,2100,-1,1,0
0,3115,2050,-1,1,0
0,3116,4840,1,1,0
0,3117,6920,-1,1,0
0,3118,2360,1,1,0
0,3119,5470,1,1,0
0,3120,900,-1,1,0
0,3121,1120,-1,1,0
0,3122,1130,-1,1,0
0,3123,5240,-1,1,0
0,3124,2950,-1,1,0
0,3125,480,-1,1,0
0,3126,2740,1,1,0
0,3127,2140,1,1,0
0,3128,3140,-1,1,0
0,3129,4680,-1,1,0
0,3130,3210,1,1,0
0,3131,3010,1,1,0
0,3132,7940,-1,1,0
0,3133,1420,1,1,0
0,3134,3620,1,1,0
0,3135,2040,-1,1,0
0,3136,4360,-1,1,0
0,3137,1770,1,1,0
0,3138,4380,-1,1,0
0,3139,4210,1,1,0
0,3140,3560,-1,1,0
0,3141,550,-1,1,0
0,3142,2600,1,1,0
0,3143,3740,-1,1,0
0,3144,2970,1,1,0
0,3145,3230,-1,1,0
0,3146,1220,-1,1,0
0,3147,2500,-1,1,0
0,3148,10930,-1,1,0
0,3149,8680,-1,1,0
0,3150,5850,-1,1,0
0,3151,550,-1,1,0
0,3152,3530,-1,1,0
0,3153,1870,1,1,0
0,3154,5760,-1,1,0
0,3155,3970,1,1,0
0,3156,3790,-1,1,0
0,3157,680,-1,1,0
0,3158,2660,-1,1,0
0,3159,980,-1,1,0
0,3160,4320,-1,1,0
0,3161,3490,-1,1,0
0,3162,2280,-1,1,0
0,3163,11780,-1,1,0
0,3164,1140,1,1,0
0,3165,1500,-1,1,0
0,3166,2390,-1,1,0
0,3167,2320,-1,1,0
0,3168,2480,1,1,0
0,3169,4030,-1,1,0
0,3170,1370,-1,1,0
0,3171,1940,-1,1,0
0,3172,4290,-1,1,0
0,3173,3130,-1,1,0
0,3174,4910,-1,1,0
0,3175,560,-1,1,0
0,3176,1950,-1,1,0
0,3177,1820,1,1,0
0,3178,3710,-1,1,0
0,3179,1740,-1,1,0
0,3180,860,-1,1,0
0,3181,1630,-1,1,0
0,3182,3630,-1,1,0
0,3183,4560,-1,1,0
0,3184,1340,-1,1,0
0,3185,1540,-1,1,0
0,3186,2680,1,1,0
0,3187,3110,-1,1,0
0,3188,7090,-1,1,0
0,3189,3820,-1,1,0
0,3190,13330,-1,1,0
0,3191,1400,-1,1,0
0,3192,2620,-1,1,0
0,3193,9940,1,1,0
0,3194,780,1,1,0
0,3195,5070,1,1,0
0,3196,1000,-1,1,0
0,3197,1210,-1,1,0
0,3198,300,1,1,0
0,3199,2780,-1,1,0
0,3200,2730,1,-1,-1
0,3201,7850,1,-1,-1
0,3202,1770,-1,-1,-1
0,3203,9600,-1,-1,-1
0,3204,2330,-1,-1,-1
0,3205,1580,-1,-1,-1
0,3206,1380,-1,-1,-1
0,3207,8550,1,-1,-1
0,3208,2630,1,-1,-1
0,3209,1730,-1,-1,-1
0,3210,1480,1,-1,-1
0,3211,5080,1,-1,-1
0,3212,4230,-1,-1,-1
0,3213,2880,1,-1,-1
0,3214,8850,1,-1,-1
0,3215,8070,1,-1,-1
0,3216,950,1,-1,-1
0,3217,3350,1,-1,-1
0,3218,1710,1,-1,-1
0,3219,1850,1,-1,-1
0,3220,5330,1,-1,-1
0,3221,580,-1,-1,-1
0,3222,1260,1,-1,-1
0,3223,4920,-1,-1,-1
0,3224,2540,1,-1,-1
0,3225,4660,-1,-1,-1
0,3226,4500,-1,-1,-1
0,3227,3490,1,-1,-1
0,3228,3300,1,-1,-1
0,3229,1640,1,-1,-1
0,3230,3050,1,-1,-1
0,3231,7210,1,-1,-1
0,3232,2560,-1,-1,-1
0,3233,1970,1,-1,-1
0,3234,4220,1,-1,-1
0,3235,4820,-1,-1,-1
0,3236,2080,-1,-1,-1
0,3237,6560,-1,-1,-1
0,3238,480,1,-1,-1
0,3239,2870,1,-1,-1
0,3240,1600,-1,-1,-1
0,3241,6930,-1,-1,-1
0,3242,3920,-1,-1,-1
0,3243,3910,1,-1,-1
0,3244,3580,-1,-1,-1
0,3245,930,-1,-1,-1
0,3246,2000,1,-1,-1
0,3247,790,1,-1,-1
0,3248,5230,-1,-1,-1
0,3249,2850,1,-1,-1
0,3250,890,1,-1,-1
0,3251,1550,1,-1,-1
0,3252,1190,1,-1,-1
0,3253,1840,-1,-1,-1
0,3254,2270,-1,-1,-1
0,3255,5240,-1,-1,-1
0,3256,730,1,-1,-1
0,3257,1580,1,-1,-1
0,3258,520,-1,-1,-1
0,3259,1050,1,-1,-1
0,3260,1010,1,-1,-1
0,3261,1270,-1,-1,-1
0,3262,7920,-1,-1,-1
0,3263,3260,1,-1,-1
0,3264,2190,-1,-1,-1
0,3265,1850,-1,-1,-1
0,3266,6880,-1,-1,-1
0,3267,1950,1,-1,-1
0,3268,1270,-1,-1,-1
0,3269,4890,1,-1,-1
0,3270,2510,1,-1,-1
0,3271,10520,1,-1,-1
0,3272,6710,1,-1,-1
0,3273,4420,1,-1,-1
0,3274,6860,-1,-1,-1
0,3275,3270,1,-1,-1
0,3276,4720,-1,-1,-1
0,3277,8570,1,-1,-1
0,3278,2650,-1,-1,-1
0,3279,500,-1,-1,-1
0,3280,4370,-1,-1,-1
0,3281,1050,1,-1,-1
0,3282,6150,1,-1,-1
0,3283,2340,-1,-1,-1
0,3284,10710,1,-1,-1
0,3285,2060,1,-1,-1
0,3286,7950,1,-1,-1
0,3287,1770,-1,-1,-1
0,3288,9100,-1,-1,-1
0,3289,3720,-1,-1,-1
0,3290,1760,1,-1,-1
0,3291,11570,-1,-1,-1
0,3292,2520,-1,-1,-1
0,3293,6600,-1,-1,-1
0,3294,5800,1,-1,-1
0,3295,4850,-1,-1,-1
0,3296,8280,1,-1,-1
0,3297,12060,-1,-1,-1
0,3298,4660,1,-1,-1
0,3299,6630,-1,-1,-1
0,3300,780,1,-1,-1
0,3301,4800,1,-1,-1
0,3302,4090,-1,-1,-1
0,3303,2500,-1,-1,-1
0,3304,5700,1,-1,-1
0,3305,2150,1,-1,-1
0,3306,6220,1,-1,-1
0,3307,2210,1,-1,-1
0,3308,5910,1,-1,-1
0,3309,5850,-1,-1,-1
0,3310,1930,1,-1,-1
0,3311,2490,-1,-1,-1
0,3312,3710,-1,-1,-1
0,3313,1260,-1,-1,-1
0,3314,1370,1,-1,-1
0,3315,1650,-1,-1,-1
0,3316,1000,-1,-1,-1
0,3317,2520,-1,-1,-1
0,3318,1780,-1,-1,-1
0,3319,3780,1,-1,-1
0,3320,2770,1,-1,-1
0,3321,2170,1,-1,-1
0,3322,22180,1,-1,-1
0,3323,2620,-1,-1,-1
0,3324,7490,1,-1,-1
0,3325,1490,-1,-1,-1
0,3326,870,-1,-1,-1
0,3327,4980,-1,-1,-1
0,3328,3870,1,-1,-1
0,3329,17640,-1,-1,-1
0,3330,2030,1,-1,-1
0,3331,15200,1,-1,-1
0,3332,10470,-1,-1,-1
0,3333,3790,-1,-1,-1
0,3334,6220,1,-1,-1
0,3335,4460,-1,-1,-1
0,3336,5300,-1,-1,-1
0,3337,2160,1,-1,-1
0,3338,1120,1,-1,-1
0,3339,1950,-1,-1,-1
0,3340,1340,1,-1,-1
0,3341,4660,1,-1,-1
0,3342,2070,1,-1,-1
0,3343,2010,-1,-1,-1
0,3344,5760,-1,-1,-1
0,3345,2320,-1,-1,-1
0,3346,9780,1,-1,-1
0,3347,9120,1,-1,-1
0,3348,2950,1,-1,-1
0,3349,12120,1,-1,-1
0,3350,3450,1,-1,-1
0,3351,2840,1,-1,-1
0,3352,4650,1,-1,-1
0,3353,1390,1,-1,-1
0,3354,1980,1,-1,-1
0,3355,6120,1,-1,-1
0,3356,3080,1,-1,-1
0,3357,3820,-1,-1,-1
0,3358,7280,1,-1,-1
0,3359,2900,1,-1,-1
0,3360,1690,-1,-1,-1
0,3361,1600,1,-1,-1
0,3362,6930,1,-1,-1
0,3363,2370,-1,-1,-1
0,3364,1700,-1,-1,-1
0,3365,650,1,-1,-1
0,3366,2480,-1,-1,-1
0,3367,3240,1,-1,-1
0,3368,3990,-1,-1,-1
0,3369,1030,1,-1,-1
0,3370,3300,1,-1,-1
0,3371,8550,1,-1,-1
0,3372,5720,1,-1,-1
0,3373,5400,1,-1,-1
0,3374,2100,-1,-1,-1
0,3375,2700,-1,-1,-1
0,3376,1950,-1,-1,-1
0,3377,5310,1,-1,-1
0,3378,2440,1,-1,-1
0,3379,5540,1,-1,-1
0,3380,4490,1,-1,-1
0,3381,4190,-1,-1,-1
0,3382,1120,1,-1,-1
0,3383,1150,-1,-1,-1
0,3384,2010,-1,-1,-1
0,3385,8060,-1,-1,-1
0,3386,4850,-1,-1,-1
0,3387,2100,1,-1,-1
0,3388,1730,-1,-1,-1
0,3389,9650,1,-1,-1
0,3390,1800,1,-1,-1
0,3391,3610,1,-1,-1
0,3392,3560,1,-1,-1
0,3393,4750,-1,-1,-1
0,3394,4610,1,-1,-1
0,3395,870,1,-1,-1
0,3396,8420,1,-1,-1
0,3397,6560,-1,-1,-1
0,3398,2160,1,-1,-1
0,3399,3970,1,-1,-1
0,3400,2060,-1,-1,-1
0,3401,840,1,-1,-1
0,3402,1820,-1,-1,-1
0,3403,4230,-1,-1,-1
0,3404,9160,1,-1,-1
0,3405,1480,-1,-1,-1
0,3406,5540,1,-1,-1
0,3407,2190,-1,-1,-1
0,3408,5810,1,-1,-1
0,3409,2910,-1,-1,-1
0,3410,1860,1,-1,-1
0,3411,5460,1,-1,-1
0,3412,15330,1,-1,-1
0,3413,3020,1,-1,-1
0,3414,8670,-1,-1,-1
0,3415,3430,1,-1,-1
0,3416,2660,1,-1,-1
0,3417,7560,1,-1,-1
0,3418,5840,1,-1,-1
0,3419,4360,-1,-1,-1
0,3420,11710,1,-1,-1
0,3421,7310,1,-1,-1
0,3422,6530,1,-1,-1
0,3423,3450,-1,-1,-1
0,3424,7950,-1,-1,-1
0,3425,11940,-1,-1,-1
0,3426,1130,-1,-1,-1
0,3427,1320,1,-1,-1
0,3428,6900,1,-1,-1
0,3429,2540,-1,-1,-1
0,3430,960,-1,-1,-1
0,3431,2550,-1,-1,-1
0,3432,1120,1,-1,-1
0,3433,1190,1,-1,-1
0,3434,9080,-1,-1,-1
0,3435,3450,1,-1,-1
0,3436,2490,-1,-1,-1
0,3437,7270,1,-1,-1
0,3438,2280,1,-1,-1
0,3439,5350,-1,-1,-1
0,3440,4960,-1,-1,-1
0,3441,7730,-1,-1,-1
0,3442,3600,-1,-1,-1
0,3443,1810,1,-1,-1
0,3444,2780,1,-1,-1
0,3445,3900,-1,-1,-1
0,3446,5620,-1,-1,-1
0,3447,11810,1,-1,-1
0,3448,550,1,-1,-1
0,3449,2850,-1,-1,-1
0,3450,2490,-1,-1,-1
0,3451,9010,-1,-1,-1
0,3452,1220,1,-1,-1
0,3453,13190,-1,-1,-1
0,3454,640,1,-1,-1
0,3455,2870,-1,-1,-1
0,3456,14310,-1,-1,-1
0,3457,5880,1,-1,-1
0,3458,2530,1,-1,-1
0,3459,900,1,-1,-1
0,3460,1670,1,-1,-1
0,3461,3170,-1,-1,-1
0,3462,1630,-1,-1,-1
0,3463,4310,-1,-1,-1
0,3464,1530,1,-1,-1
0,3465,2620,1,-1,-1
0,3466,4480,1,-1,-1
0,3467,1520,1,-1,-1
0,3468,3840,-1,-1,-1
0,3469,1710,1,-1,-1
0,3470,4030,-1,-1,-1
0,3471,6960,1,-1,-1
0,3472,5540,-1,-1,-1
0,3473,6260,1,-1,-1
0,3474,8290,1,-1,-1
0,3475,12310,1,-1,-1
0,3476,1290,1,-1,-1
0,3477,2480,1,-1,-1
0,3478,3120,1,-1,-1
0,3479,4840,1,-1,-1
0,3480,3900,-1,-1,-1
0,3481,1430,-1,-1,-1
0,3482,11220,-1,-1,-1
0,3483,3820,-1,-1,-1
0,3484,3530,1,-1,-1
0,3485,6340,1,-1,-1
0,3486,4870,1,-1,-1
0,3487,4630,-1,-1,-1
0,3488,1930,1,-1,-1
0,3489,1150,-1,-1,-1
0,3490,4190,1,-1,-1
0,3491,4170,1,-1,-1
0,3492,2380,-1,-1,-1
0,3493,5400,1,-1,-1
0,3494,3670,1,-1,-1
0,3495,4800,1,-1,-1
0,3496,10020,-1,-1,-1
0,3497,2000,-1,-1,-1
0,3498,1670,1,-1,-1
0,3499,3850,-1,-1,-1
0,3500,1280,-1,-1,-1
0,3501,7020,1,-1,-1
0,3502,7730,1,-1,-1
0,3503,2080,1,-1,-1
0,3504,2720,1,-1,-1
0,3505,3870,1,-1,-1
0,3506,7800,-1,-1,-1
0,3507,600,-1,-1,-1
0,3508,2690,1,-1,-1
0,3509,620,1,-1,-1
0,3510,2620,1,-1,-1
0,3511,11440,-1,-1,-1
0,3512,2370,-1,-1,-1
0,3513,2980,-1,-1,-1
0,3514,6910,-1,-1,-1
0,3515,5380,-1,-1,-1
0,3516,1410,1,-1,-1
0,3517,8050,-1,-1,-1
0,3518,3470,1,-1,-1
0,3519,7400,-1,-1,-1
0,3520,7040,-1,-1,-1
0,3521,1380,-1,-1,-1
0,3522,2660,1,-1,-1
0,3523,4360,-1,-1,-1
0,3524,4080,-1,-1,-1
0,3525,1730,-1,-1,-1
0,3526,4530,1,-1,-1
0,3527,4780,-1,-1,-1
0,3528,2110,-1,-1,-1
0,3529,7620,-1,-1,-1
0,3530,1930,-1,-1,-1
0,3531,3150,1,-1,-1
0,3532,11090,1,-1,-1
0,3533,1640,-1,-1,-1
0,3534,8930,1,-1,-1
0,3535,10180,-1,-1,-1
0,3536,2410,-1,-1,-1
0,3537,2270,1,-1,-1
0,3538,9220,1,-1,-1
0,3539,6370,-1,-1,-1
0,3540,1070,1,-1,-1
0,3541,1140,1,-1,-1
0,3542,5870,-1,-1,-1
0,3543,770,1,-1,-1
0,3544,3920,1,-1,-1
0,3545,4130,1,-1,-1
0,3546,4900,1,-1,-1
0,3547,6530,-1,-1,-1
0,3548,2490,-1,-1,-1
0,3549,10090,1,-1,-1
0,3550,4540,-1,-1,-1
0,3551,1140,1,-1,-1
0,3552,2850,-1,-1,-1
0,3553,7690,-1,-1,-1
0,3554,18220,-1,-1,-1
0,3555,2460,-1,-1,-1
0,3556,2800,-1,-1,-1
0,3557,1280,1,-1,-1
0,3558,6270,-1,-1,-1
0,3559,1520,-1,-1,-1
0,3560,4770,-1,-1,-1
0,3561,1200,1,-1,-1
0,3562,4890,-1,-1,-1
0,3563,6400,-1,-1,-1
0,3564,4280,1,-1,-1
0,3565,2080,-1,-1,-1
0,3566,6480,1,-1,-1
0,3567,820,1,-1,-1
0,3568,2330,-1,-1,-1
0,3569,1890,-1,-1,-1
0,3570,17680,-1,-1,-1
0,3571,790,1,-1,-1
0,3572,5850,1,-1,-1
0,3573,2350,-1,-1,-1
0,3574,6260,1,-1,-1
0,3575,8070,-1,-1,-1
0,3576,5270,1,-1,-1
0,3577,4490,1,-1,-1
0,3578,5290,1,-1,-1
0,3579,14950,1,-1,-1
0,3580,6000,-1,-1,-1
0,3581,3740,-1,-1,-1
0,3582,1760,1,-1,-1
0,3583,2290,-1,-1,-1
0,3584,1060,1,-1,-1
0,3585,2060,-1,-1,-1
0,3586,2440,-1,-1,-1
0,3587,2120,-1,-1,-1
0,3588,6090,-1,-1,-1
0,3589,1500,1,-1,-1
0,3590,2550,-1,-1,-1
0,3591,1640,-1,-1,-1
0,3592,4610,1,-1,-1
0,3593,6630,1,-1,-1
0,3594,11250,-1,-1,-1
0,3595,3410,1,-1,-1
0,3596,1040,-1,-1,-1
0,3597,1370,-1,-1,-1
0,3598,5120,-1,-1,-1
0,3599,2980,1,-1,-1
0,3600,5840,-1,1,0
0,3601,660,1,1,0
0,3602,1280,-1,1,0
0,3603,4100,-1,1,0
0,3604,4460,-1,1,0
0,3605,5800,1,1,0
0,3606,3080,1,1,0
0,3607,2900,1,1,0
0,3608,3740,-1,1,0
0,3609,2970,-1,1,0
0,3610,1360,-1,1,0
0,3611,730,-1,1,0
0,3612,1930,-1,1,0
0,3613,20560,1,1,0
0,3614,4360,-1,1,0
0,3615,10030,-1,1,0
0,3616,2080,1,1,0
0,3617,2100,-1,1,0
0,3618,2260,-1,1,0
0,3619,1830,1,1,0
0,3620,5790,1,1,0
0,3621,1230,1,1,0
0,3622,1210,-1,1,0
0,3623,9700,-1,1,0
0,3624,1440,1,1,0
0,3625,11750,-1,1,0
0,3626,11110,-1,1,0
0,3627,4570,-1,1,0
0,3628,6080,-1,1,0
0,3629,2980,1,1,0
0,3630,10760,-1,1,0
0,3631,2290,1,1,0
0,3632,7520,-1,1,0
0,3633,6440,-1,1,0
0,3634,8780,1,1,0
0,3635,1130,-1,1,0
0,3636,21930,-1,1,0
0,3637,2450,1,1,0
0,3638,860,-1,1,0
0,3639,3190,-1,1,0
0,3640,6650,-1,1,0
0,3641,2570,-1,1,0
0,3642,1670,-1,1,0
0,3643,2380,-1,1,0
0,3644,2520,1,1,0
0,3645,1830,1,1,0
0,3646,16460,-1,1,0
0,3647,1700,-1,1,0
0,3648,17120,-1,1,0
0,3649,5100,1,1,0
0,3650,1420,-1,1,0
0,3651,9170,1,1,0
0,3652,7390,1,1,0
0,3653,24180,-1,1,0
0,3654,660,-1,1,0
0,3655,4590,-1,1,0
0,3656,1270,-1,1,0
0,3657,660,-1,1,0
0,3658,4970,-1,1,0
0,3659,12730,1,1,0
0,3660,3670,-1,1,0
0,3661,3850,1,1,0
0,3662,1570,-1,1,0
0,3663,5990,-1,1,0
0,3664,11810,-1,1,0
0,3665,8090,-1,1,0
0,3666,2680,-1,1,0
0,3667,2700,1,1,0
0,3668,2670,-1,1,0
0,3669,3400,1,1,0
0,3670,2970,1,1,0
0,3671,7630,-1,1,0
0,3672,4750,-1,1,0
0,3673,2200,1,1,0
0,3674,1090,-1,1,0
0,3675,670,-1,1,0
0,3676,4200,1,1,0
0,3677,3090,1,1,0
0,3678,3470,-1,1,0
0,3679,2980,-1,1,0
0,3680,2790,-1,1,0
0,3681,1690,-1,1,0
0,3682,3370,1,1,0
0,3683,8390,1,1,0
0,3684,6790,-1,1,0
0,3685,1470,-1,1,0
0,3686,1130,-1,1,0
0,3687,4040,-1,1,0
0,3688,1660,-1,1,0
0,3689,2780,-1,1,0
0,3690,2850,-1,1,0
0,3691,7760,-1,1,0
0,3692,1330,-1,1,0
0,3693,32560,-1,1,0
0,3694,2060,-1,1,0
0,3695,1720,-1,1,0
0,3696,1560,-1,1,0
0,3697,5160,1,1,0
0,3698,2680,-1,1,0
0,3699,1670,1,1,0
0,3700,9480,-1,1,0
0,3701,1100,-1,1,0
0,3702,3030,1,1,0
0,3703,8270,-1,1,0
0,3704,6390,1,1,0
0,3705,5850,-1,1,0
0,3706,1330,-1,1,0
0,3707,1790,-1,1,0
0,3708,2970,-1,1,0
0,3709,3080,-1,1,0
0,3710,4530,1,1,0
0,3711,3910,-1,1,0
0,3712,3920,-1,1,0
0,3713,6460,-1,1,0
0,3714,2020,1,1,0
0,3715,2460,-1,1,0
0,3716,5940,-1,1,0
0,3717,2580,1,1,0
0,3718,1690,-1,1,0
0,3719,1420,-1,1,0
0,3720,11520,-1,1,0
0,3721,1600,-1,1,0
0,3722,3640,-1,1,0
0,3723,2610,1,1,0
0,3724,3530,-1,1,0
0,3725,7860,-1,1,0
0,3726,9010,-1,1,0
0,3727,1260,1,1,0
0,3728,1350,1,1,0
0,3729,6530,-1,1,0
0,3730,1260,-1,1,0
0,3731,3250,-1,1,0
0,3732,7410,-1,1,0
0,3733,3440,-1,1,0
0,3734,7020,-1,1,0
0,3735,4440,1,1,0
0,3736,4400,1,1,0
0,3737,5110,-1,1,0
0,3738,3180,1,1,0
0,3739,3540,1,1,0
0,3740,7500,1,1,0
0,3741,420,-1,1,0
0,3742,680,-1,1,0
0,3743,2580,1,1,0
0,3744,3290,1,1,0
0,3745,4340,-1,1,0
0,3746,5510,-1,1,0
0,3747,3160,-1,1,0
0,3748,5380,-1,1,0
0,3749,1700,-1,1,0
0,3750,4550,-1,1,0
0,3751,1100,-1,1,0
0,3752,1420,-1,1,0
0,3753,17840,-1,1,0
0,3754,1000,-1,1,0
0,3755,2680,-1,1,0
0,3756,6890,-1,1,0
0,3757,1650,-1,1,0
0,3758,1140,-1,1,0
0,3759,1000,-1,1,0
0,3760,13750,1,1,0
0,3761,3420,1,1,0
0,3762,1680,-1,1,0
0,3763,1110,-1,1,0
0,3764,10010,1,1,0
0,3765,4780,-1,1,0
0,3766,930,-1,1,0
0,3767,950,1,1,0
0,3768,5820,-1,1,0
0,3769,4290,1,1,0
0,3770,3870,1,1,0
0,3771,1640,1,1,0
0,3772,7350,-1,1,0
0,3773,1980,-1,1,0
0,3774,17320,1,1,0
0,3775,4130,1,1,0
0,3776,1590,-1,1,0
0,3777,750,-1,1,0
0,3778,1740,-1,1,0
0,3779,2180,1,1,0
0,3780,1730,-1,1,0
0,3781,5610,-1,1,0
0,3782,2450,1,1,0
0,3783,1510,-1,1,0
0,3784,900,-1,1,0
0,3785,2730,-1,1,0
0,3786,2530,1,1,0
0,3787,6870,-1,1,0
0,3788,1050,-1,1,0
0,3789,3910,-1,1,0
0,3790,1720,-1,1,0
0,3791,6450,-1,1,0
0,3792,1100,-1,1,0
0,3793,2410,-1,1,0
0,3794,2070,-1,1,0
0,3795,6190,1,1,0
0,3796,3530,-1,1,0
0,3797,1820,-1,1,0
0,3798,1170,-1,1,0
0,3799,490,1,1,0
0,3800,7570,-1,1,0
0,3801,8870,1,1,0
0,3802,9590,1,1,0
0,3803,490,-1,1,0
0,3804,3480,-1,1,0
0,3805,2250,-1,1,0
0,3806,4280,1,1,0
0,3807,3250,-1,1,0
0,3808,2970,-1,1,0
0,3809,2860,-1,1,0
0,3810,5180,-1,1,0
0,3811,11320,-1,1,0
0,3812,7260,-1,1,0
0,3813,9090,-1,1,0
0,3814,12300,-1,1,0
0,3815,9620,-1,1,0
0,3816,10890,-1,1,0
0,3817,1750,-1,1,0
0,3818,11520,-1,1,0
0,3819,6790,-1,1,0
0,3820,1840,-1,1,0
0,3821,3340,-1,1,0
0,3822,2720,-1,1,0
0,3823,6200,1,1,0
0,3824,2600,1,1,0
0,3825,1920,1,1,0
0,3826,1710,-1,1,0
0,3827,2160,1,1,0
0,3828,3160,1,1,0
0,3829,3550,-1,1,0
0,3830,2950,1,1,0
0,3831,2990,-1,1,0
0,3832,1500,-1,1,0
0,3833,6330,-1,1,0
0,3834,1760,-1,1,0
0,3835,7990,-1,1,0
0,3836,1300,1,1,0
0,3837,1180,-1,1,0
0,3838,2880,1,1,0
0,3839,1530,-1,1,0
0,3840,6470,-1,1,0
0,3841,3960,-1,1,0
0,3842,1610,-1,1,0
0,3843,8520,1,1,0
0,3844,980,-1,1,0
0,3845,5720,-1,1,0
0,3846,19020,-1,1,0
0,3847,5910,-1,1,0
0,3848,1170,-1,1,0
0,3849,3660,1,1,0
0,3850,4240,-1,1,0
0,3851,2080,-1,1,0
0,3852,5830,-1,1,0
0,3853,3170,1,1,0
0,3854,1580,-1,1,0
0,3855,2450,-1,1,0
0,3856,5500,1,1,0
0,3857,1980,-1,1,0
0,3858,750,-1,1,0
0,3859,2350,-1,1,0
0,3860,6840,-1,1,0
0,3861,3130,1,1,0
0,3862,1360,-1,1,0
0,3863,7250,1,1,0
0,3864,2990,-1,1,0
0,3865,6120,-1,1,0
0,3866,4250,1,1,0
0,3867,3290,1,1,0
0,3868,4170,1,1,0
0,3869,1270,-1,1,0
0,3870,2270,-1,1,0
0,3871,4290,-1,1,0
0,3872,880,-1,1,0
0,3873,1390,-1,1,0
0,3874,3370,-1,1,0
0,3875,3760,-1,1,0
0,3876,4380,-1,1,0
0,3877,2270,-1,1,0
0,3878,870,-1,1,0
0,3879,1720,-1,1,0
0,3880,7060,1,1,0
0,3881,8790,-1,1,0
0,3882,3860,1,1,0
0,3883,7430,-1,1,0
0,3884,6010,-1,1,0
0,3885,7660,1,1,0
0,3886,5850,-1,1,0
0,3887,4420,1,1,0
0,3888,2620,-1,1,0
0,3889,1550,-1,1,0
0,3890,670,1,1,0
0,3891,4140,1,1,0
0,3892,930,1,1,0
0,3893,3800,-1,1,0
0,3894,3270,1,1,0
0,3895,8450,1,1,0
0,3896,3780,1,1,0
0,3897,2460,1,1,0
0,3898,5520,-1,1,0
0,3899,870,-1,1,0
0,3900,1960,-1,1,0
0,3901,3870,1,1,0
0,3902,5580,-1,1,0
0,3903,4170,1,1,0
0,3904,1300,-1,1,0
0,3905,780,-1,1,0
0,3906,3960,-1,1,0
0,3907,780,-1,1,0
0,3908,9900,-1,1,0
0,3909,1500,-1,1,0
0,3910,5140,-1,1,0
0,3911,680,-1,1,0
0,3912,5180,-1,1,0
0,3913,1130,-1,1,0
0,3914,7910,-1,1,0
0,3915,9500,1,1,0
0,3916,3220,-1,1,0
0,3917,2680,-1,1,0
0,3918,530,1,1,0
0,3919,3650,-1,1,0
0,3920,3210,1,1,0
0,3921,4010,1,1,0
0,3922,3680,-1,1,0
0,3923,2080,-1,1,0
0,3924,6190,1,1,0
0,3925,4510,-1,1,0
0,3926,1230,1,1,0
0,3927,4740,-1,1,0
0,3928,2170,-1,1,0
0,3929,4960,-1,1,0
0,3930,2470,1,1,0
0,3931,5200,-1,1,0
0,3932,2830,1,1,0
0,3933,720,-1,1,0
0,3934,3680,-1,1,0
0,3935,6750,1,1,0
0,3936,4220,1,1,0
0,3937,4910,1,1,0
0,3938,4090,-1,1,0
0,3939,2220,-1,1,0
0,3940,6420,-1,1,0
0,3941,6470,-1,1,0
0,3942,4200,1,1,0
0,3943,2140,-1,1,0
0,3944,3510,1,1,0
0,3945,12530,1,1,0
0,3946,1140,1,1,0
0,3947,3050,-1,1,0
0,3948,1500,1,1,0
0,3949,9650,-1,1,0
0,3950,4400,-1,1,0
0,3951,2190,1,1,0
0,3952,9510,-1,1,0
0,3953,2720,-1,1,0
0,3954,2260,-1,1,0
0,3955,3770,1,1,0
0,3956,1580,-1,1,0
0,3957,1280,-1,1,0
0,3958,2310,1,1,0
0,3959,3510,1,1,0
0,3960,3230,-1,1,0
0,3961,4660,1,1,0
0,3962,6420,-1,1,0
0,3963,1420,-1,1,0
0,3964,3040,-1,1,0
0,3965,4400,1,1,0
0,3966,2090,1,1,0
0,3967,910,-1,1,0
0,3968,2150,1,1,0
0,3969,3680,-1,1,0
0,3970,2850,-1,1,0
0,3971,2960,-1,1,0
0,3972,840,1,1,0
0,3973,5350,-1,1,0
0,3974,3130,-1,1,0
0,3975,8480,1,1,0
0,3976,2790,-1,1,0
0,3977,3130,1,1,0
0,3978,5520,-1,1,0
0,3979,1710,-1,1,0
0,3980,2170,-1,1,0
0,3981,12230,-1,1,0
0,3982,2000,-1,1,0
0,3983,1070,-1,1,0
0,3984,4190,-1,1,0
0,3985,4980,-1,1,0
0,3986,2870,-1,1,0
0,3987,2610,1,1,0
0,3988,4150,-1,1,0
0,3989,7350,-1,1,0
0,3990,3260,-1,1,0
0,3991,2900,1,1,0
0,3992,3720,-1,1,0
0,3993,590,1,1,0
0,3994,9520,-1,1,0
0,3995,19070,-1,1,0
0,3996,4830,-1,1,0
0,3997,1490,-1,1,0
0,3998,5940,-1,1,0
0,3999,5590,-1,1,0
0,4000,2730,1,-1,-1
0,4001,4900,-1,-1,-1
0,4002,900,1,-1,-1
0,4003,3800,1,-1,-1
0,4004,4100,-1,-1,-1
0,4005,1760,1,-1,-1
0,4006,6190,1,-1,-1
0,4007,15050,1,-1,-1
0,4008,1020,1,-1,-1
0,4009,2120,1,-1,-1
0,4010,5340,-1,-1,-1
0,4011,5610,1,-1,-1
0,4012,1820,1,-1,-1
0,4013,9220,1,-1,-1
0,4014,2720,-1,-1,-1
0,4015,2980,1,-1,-1
0,4016,1460,-1,-1,-1
0,4017,3630,1,-1,-1
0,4018,6310,1,-1,-1
0,4019,1220,1,-1,-1
0,4020,810,1,-1,-1
0,4021,3320,1,-1,-1
0,4022,5080,-1,-1,-1
0,4023,1680,1,-1,-1
0,4024,4040,1,-1,-1
0,4025,6050,1,-1,-1
0,4026,1880,1,-1,-1
0,4027,5200,-1,-1,-1
0,4028,3050,1,-1,-1
0,4029,1370,-1,-1,-1
0,4030,1840,-1,-1,-1
0,4031,3550,-1,-1,-1
0,4032,710,-1,-1,-1
0,4033,4390,-1,-1,-1
0,4034,3020,1,-1,-1
0,4035,7460,1,-1,-1
0,4036,5640,1,-1,-1
0,4037,3780,-1,-1,-1
0,4038,16830,1,-1,-1
0,4039,1470,-1,-1,-1
0,4040,5340,1,-1,-1
0,4041,1520,1,-1,-1
0,4042,6200,1,-1,-1
0,4043,2410,1,-1,-1
0,4044,3020,-1,-1,-1
0,4045,4880,1,-1,-1
0,4046,6670,1,-1,-1
0,4047,6340,1,-1,-1
0,4048,4740,1,-1,-1
0,4049,3770,-1,-1,-1
0,4050,3260,1,-1,-1
0,4051,6800,-1,-1,-1
0,4052,2980,1,-1,-1
0,4053,4280,1,-1,-1
0,4054,10440,-1,-1,-1
0,4055,7900,-1,-1,-1
0,4056,1460,1,-1,-1
0,4057,9540,-1,-1,-1
0,4058,1920,1,-1,-1
0,4059,4430,1,-1,-1
0,4060,840,-1,-1,-1
0,4061,2800,1,-1,-1
0,4062,1180,-1,-1,-1
0,4063,4280,-1,-1,-1
0,4064,1960,1,-1,-1
0,4065,1770,-1,-1,-1
0,4066,2480,1,-1,-1
0,4067,810,-1,-1,-1
0,4068,6080,1,-1,-1
0,4069,3250,1,-1,-1
0,4070,2620,-1,-1,-1
0,4071,2860,1,-1,-1
0,4072,1860,1,-1,-1
0,4073,10140,1,-1,-1
0,4074,390,1,-1,-1
0,4075,5290,-1,-1,-1
0,4076,1950,-1,-1,-1
0,4077,14260,-1,-1,-1
0,4078,2930,1,-1,-1
0,4079,1600,-1,-1,-1
0,4080,2220,-1,-1,-1
0,4081,630,1,-1,-1
0,4082,3330,-1,-1,-1
0,4083,5980,-1,-1,-1
0,4084,2410,-1,-1,-1
0,4085,7740,-1,-1,-1
0,4086,1030,-1,-1,-1
0,4087,2380,1,-1,-1
0,4088,3080,1,-1,-1
0,4089,5660,1,-1,-1
0,4090,2860,-1,-1,-1
0,4091,5650,-1,-1,-1
0,4092,3990,-1,-1,-1
0,4093,2430,1,-1,-1
0,4094,9250,-1,-1,-1
0,4095,6930,-1,-1,-1
0,4096,7870,1,-1,-1
0,4097,1550,-1,-1,-1
0,4098,950,1,-1,-1
0,4099,2700,-1,-1,-1
0,4100,3510,1,-1,-1
0,4101,1480,-1,-1,-1
0,4102,1610,1,-1,-1
0,4103,2930,-1,-1,-1
0,4104,1140,1,-1,-1
0,4105,3920,-1,-1,-1
0,4106,830,-1,-1,-1
0,4107,4230,-1,-1,-1
0,4108,2570,1,-1,-1
0,4109,6420,1,-1,-1
0,4110,2560,1,-1,-1
0,4111,1680,1,-1,-1
0,4112,3090,1,-1,-1
0,4113,15860,-1,-1,-1
0,4114,2480,-1,-1,-1
0,4115,2960,1,-1,-1
0,4116,2760,-1,-1,-1
0,4117,10250,1,-1,-1
0,4118,1840,1,-1,-1
0,4119,6700,1,-1,-1
0,4120,4940,1,-1,-1
0,4121,4470,1,-1,-1
0,4122,4370,-1,-1,-1
0,4123,5230,1,-1,-1
0,4124,3640,1,-1,-1
0,4125,4560,-1,-1,-1
0,4126,1050,1,-1,-1
0,4127,4480,1,-1,-1
0,4128,3370,1,-1,-1
0,4129,1140,1,-1,-1
0,4130,430,1,-1,-1
0,4131,2420,1,-1,-1
0,4132,7170,1,-1,-1
0,4133,780,1,-1,-1
0,4134,3650,-1,-1,-1
0,4135,2670,-1,-1,-1
0,4136,6240,1,-1,-1
0,4137,3460,-1,-1,-1
0,4138,8110,1,-1,-1
0,4139,1240,1,-1,-1
0,4140,7250,-1,-1,-1
0,4141,1970,-1,-1,-1
0,4142,1590,-1,-1,-1
0,4143,3500,1,-1,-1
0,4144,6770,-1,-1,-1
0,4145,5620,1,-1,-1
0,4146,1440,1,-1,-1
0,4147,4140,1,-1,-1
0,4148,5130,-1,-1,-1
0,4149,4680,1,-1,-1
0,4150,8480,-1,-1,-1
0,4151,3770,1,-1,-1
0,4152,2440,-1,-1,-1
0,4153,1010,1,-1,-1
0,4154,8660,1,-1,-1
0,4155,3310,1,-1,-1
0,4156,4460,1,-1,-1
0,4157,2910,-1,-1,-1
0,4158,1580,1,-1,-1
0,4159,2350,1,-1,-1
0,4160,1340,1,-1,-1
0,4161,1510,-1,-1,-1
0,4162,12140,-1,-1,-1
0,4163,2400,1,-1,-1
0,4164,950,1,-1,-1
0,4165,5160,-1,-1,-1
0,4166,1690,-1,-1,-1
0,4167,3250,1,-1,-1
0,4168,17730,-1,-1,-1
0,4169,1010,-1,-1,-1
0,4170,2560,1,-1,-1
0,4171,1220,-1,-1,-1
0,4172,7490,-1,-1,-1
0,4173,2620,1,-1,-1
0,4174,4230,1,-1,-1
0,4175,2620,1,-1,-1
0,4176,4090,1,-1,-1
0,4177,2360,1,-1,-1
0,4178,760,-1,-1,-1
0,4179,2500,1,-1,-1
0,4180,6840,1,-1,-1
0,4181,850,1,-1,-1
0,4182,890,-1,-1,-1
0,4183,13560,-1,-1,-1
0,4184,1440,1,-1,-1
0,4185,2690,-1,-1,-1
0,4186,6610,-1,-1,-1
0,4187,7350,1,-1,-1
0,4188,3120,-1,-1,-1
0,4189,3210,1,-1,-1
0,4190,1440,-1,-1,-1
0,4191,7700,-1,-1,-1
0,4192,1840,1,-1,-1
0,4193,1200,-1,-1,-1
0,4194,11990,-1,-1,-1
0,4195,6850,-1,-1,-1
0,4196,3500,1,-1,-1
0,4197,1240,-1,-1,-1
0,4198,2610,-1,-1,-1
0,4199,1390,1,-1,-1
0,4200,840,1,-1,-1
0,4201,5610,1,-1,-1
0,4202,2730,-1,-1,-1
0,4203,870,1,-1,-1
0,4204,2650,1,-1,-1
0,4205,3630,1,-1,-1
0,4206,4040,1,-1,-1
0,4207,2170,-1,-1,-1
0,4208,4080,-1,-1,-1
0,4209,7390,1,-1,-1
0,4210,2650,1,-1,-1
0,4211,1470,1,-1,-1
0,4212,6540,-1,-1,-1
0,4213,2240,1,-1,-1
0,4214,9330,-1,-1,-1
0,4215,4990,1,-1,-1
0,4216,1770,-1,-1,-1
0,4217,1410,1,-1,-1
0,4218,8090,-1,-1,-1
0,4219,2330,1,-1,-1
0,4220,7150,1,-1,-1
0,4221,3490,-1,-1,-1
0,4222,2760,1,-1,-1
0,4223,3300,1,-1,-1
0,4224,8300,1,-1,-1
0,4225,8860,-1,-1,-1
0,4226,3090,1,-1,-1
0,4227,2500,1,-1,-1
0,4228,1850,-1,-1,-1
0,4229,2590,1,-1,-1
0,4230,2540,1,-1,-1
0,4231,8300,1,-1,-1
0,4232,8970,-1,-1,-1
0,4233,9890,1,-1,-1
0,4234,550,1,-1,-1
0,4235,2090,1,-1,-1
0,4236,1270,1,-1,-1
0,4237,840,1,-1,-1
0,4238,2930,-1,-1,-1
0,4239,1600,1,-1,-1
0,4240,3510,-1,-1,-1
0,4241,9960,1,-1,-1
0,4242,5700,1,-1,-1
0,4243,1770,1,-1,-1
0,4244,4410,-1,-1,-1
0,4245,6070,-1,-1,-1
0,4246,660,-1,-1,-1
0,4247,2980,1,-1,-1
0,4248,5000,1,-1,-1
0,4249,4790,1,-1,-1
0,4250,4650,-1,-1,-1
0,4251,3690,1,-1,-1
0,4252,1050,-1,-1,-1
0,4253,3970,1,-1,-1
0,4254,1570,-1,-1,-1
0,4255,6890,-1,-1,-1
0,4256,12160,-1,-1,-1
0,4257,2130,1,-1,-1
0,4258,2400,1,-1,-1
0,4259,610,-1,-1,-1
0,4260,4590,-1,-1,-1
0,4261,3460,1,-1,-1
0,4262,4720,-1,-1,-1
0,4263,3160,1,-1,-1
0,4264,2980,1,-1,-1
0,4265,2020,-1,-1,-1
0,4266,11210,1,-1,-1
0,4267,1250,1,-1,-1
0,4268,9090,1,-1,-1
0,4269,6070,1,-1,-1
0,4270,760,1,-1,-1
0,4271,610,-1,-1,-1
0,4272,3910,1,-1,-1
0,4273,5170,1,-1,-1
0,4274,1520,1,-1,-1
0,4275,4830,1,-1,-1
0,4276,4860,-1,-1,-1
0,4277,6300,-1,-1,-1
0,4278,1520,1,-1,-1
0,4279,6890,1,-1,-1
0,4280,8060,1,-1,-1
0,4281,3480,1,-1,-1
0,4282,320,-1,-1,-1
0,4283,1820,1,-1,-1
0,4284,3850,1,-1,-1
0,4285,7950,1,-1,-1
0,4286,2470,-1,-1,-1
0,4287,4470,-1,-1,-1
0,4288,5540,-1,-1,-1
0,4289,5410,-1,-1,-1
0,4290,5120,1,-1,-1
0,4291,3070,-1,-1,-1
0,4292,4730,-1,-1,-1
0,4293,1600,-1,-1,-1
0,4294,1730,1,-1,-1
0,4295,8930,1,-1,-1
0,4296,390,-1,-1,-1
0,4297,6620,1,-1,-1
0,4298,4140,-1,-1,-1
0,4299,10100,-1,-1,-1
0,4300,3760,1,-1,-1
0,4301,7350,1,-1,-1
0,4302,830,1,-1,-1
0,4303,2640,-1,-1,-1
0,4304,5130,-1,-1,-1
0,4305,8440,1,-1,-1
0,4306,5280,1,-1,-1
0,4307,3290,-1,-1,-1
0,4308,3990,1,-1,-1
0,4309,3100,1,-1,-1
0,4310,1190,1,-1,-1
0,4311,1720,1,-1,-1
0,4312,1400,-1,-1,-1
0,4313,3410,1,-1,-1
0,4314,1670,-1,-1,-1
0,4315,2450,1,-1,-1
0,4316,1910,1,-1,-1
0,4317,2210,1,-1,-1
0,4318,1700,1,-1,-1
0,4319,4030,1,-1,-1
0,4320,880,1,-1,-1
0,4321,1110,1,-1,-1
0,4322,1150,1,-1,-1
0,4323,6770,-1,-1,-1
0,4324,1350,1,-1,-1
0,4325,6260,1,-1,-1
0,4326,7130,-1,-1,-1
0,4327,4010,1,-1,-1
0,4328,1050,1,-1,-1
0,4329,710,1,-1,-1
0,4330,2050,-1,-1,-1
0,4331,2980,1,-1,-1
0,4332,1310,1,-1,-1
0,4333,2530,1,-1,-1
0,4334,6520,1,-1,-1
0,4335,2940,1,-1,-1
0,4336,2970,-1,-1,-1
0,4337,2910,-1,-1,-1
0,4338,1080,-1,-1,-1
0,4339,4370,1,-1,-1
0,4340,2580,1,-1,-1
0,4341,4200,-1,-1,-1
0,4342,7700,1,-1,-1
0,4343,4000,1,-1,-1
0,4344,3530,-1,-1,-1
0,4345,1200,-1,-1,-1
0,4346,6120,1,-1,-1
0,4347,1500,1,-1,-1
0,4348,2910,-1,-1,-1
0,4349,2770,-1,-1,-1
0,4350,2620,-1,-1,-1
0,4351,1840,-1,-1,-1
0,4352,3420,-1,-1,-1
0,4353,3030,-1,-1,-1
0,4354,7450,1,-1,-1
0,4355,2660,1,-1,-1
0,4356,1640,1,-1,-1
0,4357,3140,1,-1,-1
0,4358,7730,-1,-1,-1
0,4359,4970,-1,-1,-1
0,4360,2110,-1,-1,-1
0,4361,1790,-1,-1,-1
0,4362,2490,-1,-1,-1
0,4363,1850,1,-1,-1
0,4364,4290,1,-1,-1
0,4365,1300,1,-1,-1
0,4366,460,-1,-1,-1
0,4367,8170,-1,-1,-1
0,4368,7090,1,-1,-1
0,4369,4350,1,-1,-1
0,4370,2230,1,-1,-1
0,4371,2880,1,-1,-1
0,4372,3730,-1,-1,-1
0,4373,3200,1,-1,-1
0,4374,2280,1,-1,-1
0,4375,7710,1,-1,-1
0,4376,5080,1,-1,-1
0,4377,5330,1,-1,-1
0,4378,6720,1,-1,-1
0,4379,5670,1,-1,-1
0,4380,7550,1,-1,-1
0,4381,11130,1,-1,-1
0,4382,4920,-1,-1,-1
0,4383,1150,1,-1,-1
0,4384,5460,-1,-1,-1
0,4385,2090,1,-1,-1
0,4386,1000,1,-1,-1
0,4387,1420,1,-1,-1
0,4388,2750,1,-1,-1
0,4389,970,-1,-1,-1
0,4390,3220,1,-1,-1
0,4391,6580,-1,-1,-1
0,4392,1460,1,-1,-1
0,4393,2480,1,-1,-1
0,4394,5570,-1,-1,-1
0,4395,2270,1,-1,-1
0,4396,7310,-1,-1,-1
0,4397,1930,-1,-1,-1
0,4398,1970,1,-1,-1
0,4399,4220,-1,-1,-1
0,4400,3820,1,0,0
0,4401,1910,-1,0,0
0,4402,6150,-1,0,0
0,4403,2600,-1,0,0
0,4404,3840,-1,0,0
0,4405,1300,1,0,0
0,4406,2580,1,0,0
0,4407,1640,-1,0,0
0,4408,1820,1,0,0
0,4409,1710,1,0,0
0,4410,8770,1,0,0
0,4411,14190,-1,0,0
0,4412,20450,1,0,0
0,4413,3480,-1,0,0
0,4414,4890,1,0,0
0,4415,720,1,0,0
0,4416,12380,-1,0,0
0,4417,1110,1,0,0
0,4418,1730,1,0,0
0,4419,2450,-1,0,0
0,4420,5700,1,0,0
0,4421,1650,1,0,0
0,4422,390,1,0,0
0,4423,4280,-1,0,0
0,4424,3410,1,0,0
0,4425,4710,-1,0,0
0,4426,7940,-1,0,0
0,4427,3560,1,0,0
0,4428,2600,1,0,0
0,4429,12040,1,0,0
0,4430,5260,1,0,0
0,4431,6160,-1,0,0
0,4432,4060,1,0,0
0,4433,4100,1,0,0
0,4434,9840,-1,0,0
0,4435,3900,1,0,0
0,4436,5540,1,0,0
0,4437,6750,-1,0,0
0,4438,10470,1,0,0
0,4439,700,1,0,0
0,4440,970,-1,0,0
0,4441,1010,-1,0,0
0,4442,14680,-1,0,0
0,4443,2870,1,0,0
0,4444,1210,1,0,0
0,4445,3460,1,0,0
0,4446,2510,1,0,0
0,4447,5090,-1,0,0
0,4448,780,1,0,0
0,4449,3600,1,0,0
0,4450,1570,1,0,0
0,4451,2320,-1,0,0
0,4452,14490,-1,0,0
0,4453,1830,-1,0,0
0,4454,1410,-1,0,0
0,4455,2710,1,0,0
0,4456,2630,-1,0,0
0,4457,3450,1,0,0
0,4458,3290,1,0,0
0,4459,920,1,0,0
0,4460,600,1,0,0
0,4461,3000,-1,0,0
0,4462,8410,1,0,0
0,4463,1340,1,0,0
0,4464,8360,-1,0,0
0,4465,3260,1,0,0
0,4466,22730,-1,0,0
0,4467,3720,1,0,0
0,4468,1360,-1,0,0
0,4469,7850,-1,0,0
0,4470,5810,1,0,0
0,4471,2860,-1,0,0
0,4472,5030,1,0,0
0,4473,1030,1,0,0
0,4474,760,1,0,0
0,4475,1840,-1,0,0
0,4476,1180,1,0,0
0,4477,9820,-1,0,0
0,4478,1490,1,0,0
0,4479,2040,1,0,0
0,4480,950,1,0,0
0,4481,7390,1,0,0
0,4482,3020,1,0,0
0,4483,2190,-1,0,0
0,4484,6730,1,0,0
0,4485,9430,-1,0,0
0,4486,2880,1,0,0
0,4487,3330,1,0,0
0,4488,7290,1,0,0
0,4489,1810,-1,0,0
0,4490,6350,1,0,0
0,4491,1760,1,0,0
0,4492,9260,1,0,0
0,4493,2360,1,0,0
0,4494,1650,-1,0,0
0,4495,2300,-1,0,0
0,4496,6560,-1,0,0
0,4497,5750,-1,0,0
0,4498,6290,-1,0,0
0,4499,3290,-1,0,0
0,4500,6430,-1,0,0
0,4501,5690,-1,0,0
0,4502,8170,-1,0,0
0,4503,15110,-1,0,0
0,4504,1300,-1,0,0
0,4505,7320,1,0,0
0,4506,7060,-1,0,0
0,4507,5350,-1,0,0
0,4508,1470,1,0,0
0,4509,4260,1,0,0
0,4510,2680,-1,0,0
0,4511,4540,1,0,0
0,4512,3210,-1,0,0
0,4513,3030,-1,0,0
0,4514,4950,1,0,0
0,4515,11440,-1,0,0
0,4516,2890,-1,0,0
0,4517,2860,1,0,0
0,4518,5930,-1,0,0
0,4519,5830,1,0,0
0,4520,1820,1,0,0
0,4521,4550,1,0,0
0,4522,10040,1,0,0
0,4523,7530,-1,0,0
0,4524,1110,1,0,0
0,4525,3860,-1,0,0
0,4526,6800,1,0,0
0,4527,1340,1,0,0
0,4528,5480,-1,0,0
0,4529,1730,-1,0,0
0,4530,4530,-1,0,0
0,4531,3270,-1,0,0
0,4532,2580,-1,0,0
0,4533,1530,1,0,0
0,4534,2150,1,0,0
0,4535,1980,1,0,0
0,4536,1360,-1,0,0
0,4537,4500,-1,0,0
0,4538,4130,-1,0,0
0,4539,2920,1,0,0
0,4540,3480,-1,0,0
0,4541,2610,1,0,0
0,4542,8180,-1,0,0
0,4543,3210,1,0,0
0,4544,680,1,0,0
0,4545,680,1,0,0
0,4546,7010,-1,0,0
0,4547,6680,1,0,0
0,4548,3370,-1,0,0
0,4549,2750,1,0,0
0,4550,1900,1,0,0
0,4551,10950,1,0,0
0,4552,10090,1,0,0
0,4553,2130,-1,0,0
0,4554,3200,1,0,0
0,4555,4190,-1,0,0
0,4556,5010,1,0,0
0,4557,1860,-1,0,0
0,4558,13880,-1,0,0
0,4559,1260,1,0,0
0,4560,5800,1,0,0
0,4561,4510,-1,0,0
0,4562,2160,-1,0,0
0,4563,310,-1,0,0
0,4564,2330,1,0,0
0,4565,790,1,0,0
0,4566,11510,1,0,0
0,4567,7430,1,0,0
0,4568,5690,1,0,0
0,4569,8260,1,0,0
0,4570,2290,1,0,0
0,4571,2300,1,0,0
0,4572,3430,-1,0,0
0,4573,3420,-1,0,0
0,4574,3980,1,0,0
0,4575,2600,-1,0,0
0,4576,1000,-1,0,0
0,4577,4780,1,0,0
0,4578,700,-1,0,0
0,4579,6590,-1,0,0
0,4580,1250,1,0,0
0,4581,2260,-1,0,0
0,4582,2540,-1,0,0
0,4583,5240,-1,0,0
0,4584,1190,-1,0,0
0,4585,3560,1,0,0
0,4586,2680,-1,0,0
0,4587,610,1,0,0
0,4588,5610,1,0,0
0,4589,5630,-1,0,0
0,4590,3170,-1,0,0
0,4591,3580,1,0,0
0,4592,1060,-1,0,0
0,4593,3620,1,0,0
0,4594,5510,1,0,0
0,4595,3630,-1,0,0
0,4596,5890,-1,0,0
0,4597,20300,1,0,0
0,4598,3510,1,0,0
0,4599,1690,1,0,0
0,4600,1320,-1,0,0
0,4601,5100,1,0,0
0,4602,4570,1,0,0
0,4603,3810,1,0,0
0,4604,1790,-1,0,0
0,4605,1670,1,0,0
0,4606,2480,-1,0,0
0,4607,2240,-1,0,0
0,4608,12070,1,0,0
0,4609,3110,1,0,0
0,4610,1620,1,0,0
0,4611,4650,1,0,0
0,4612,1420,-1,0,0
0,4613,1200,-1,0,0
0,4614,1330,-1,0,0
0,4615,1890,1,0,0
0,4616,640,1,0,0
0,4617,4940,1,0,0
0,4618,3580,1,0,0
0,4619,1500,1,0,0
0,4620,5640,1,0,0
0,4621,2770,1,0,0
0,4622,970,-1,0,0
0,4623,3420,1,0,0
0,4624,2870,1,0,0
0,4625,2240,1,0,0
0,4626,13210,1,0,0
0,4627,6580,1,0,0
0,4628,2620,1,0,0
0,4629,2250,1,0,0
0,4630,2170,1,0,0
0,4631,4880,-1,0,0
0,4632,6340,-1,0,0
0,4633,5220,1,0,0
0,4634,840,1,0,0
0,4635,2300,1,0,0
0,4636,3950,-1,0,0
0,4637,7830,-1,0,0
0,4638,5000,-1,0,0
0,4639,6090,-1,0,0
0,4640,5330,-1,0,0
0,4641,7480,1,0,0
0,4642,1300,-1,0,0
0,4643,1420,-1,0,0
0,4644,2970,1,0,0
0,4645,1260,-1,0,0
0,4646,660,-1,0,0
0,4647,4020,-1,0,0
0,4648,3310,-1,0,0
0,4649,1460,1,0,0
0,4650,12580,1,0,0
0,4651,680,1,0,0
0,4652,1060,1,0,0
0,4653,3520,1,0,0
0,4654,4800,1,0,0
0,4655,2680,1,0,0
0,4656,4690,-1,0,0
0,4657,4970,1,0,0
0,4658,3090,-1,0,0
0,4659,1510,1,0,0
0,4660,2250,1,0,0
0,4661,2940,1,0,0
0,4662,1640,1,0,0
0,4663,650,1,0,0
0,4664,7100,1,0,0
0,4665,510,1,0,0
0,4666,5570,1,0,0
0,4667,10800,1,0,0
0,4668,550,-1,0,0
0,4669,9390,1,0,0
0,4670,3300,-1,0,0
0,4671,6630,1,0,0
0,4672,1130,-1,0,0
0,4673,1310,1,0,0
0,4674,2650,-1,0,0
0,4675,11320,-1,0,0
0,4676,2880,1,0,0
0,4677,2250,1,0,0
0,4678,9320,-1,0,0
0,4679,3730,1,0,0
0,4680,2450,-1,0,0
0,4681,5750,-1,0,0
0,4682,810,-1,0,0
0,4683,1560,-1,0,0
0,4684,1830,-1,0,0
0,4685,8640,-1,0,0
0,4686,1600,-1,0,0
0,4687,4530,-1,0,0
0,4688,9420,-1,0,0
0,4689,2320,-1,0,0
0,4690,10750,1,0,0
0,4691,6560,1,0,0
0,4692,1610,1,0,0
0,4693,17910,1,0,0
0,4694,1740,-1,0,0
0,4695,1910,-1,0,0
0,4696,620,1,0,0
0,4697,2970,1,0,0
0,4698,2040,-1,0,0
0,4699,8170,1,0,0
0,4700,17180,-1,0,0
0,4701,6120,1,0,0
0,4702,1040,-1,0,0
0,4703,1620,1,0,0
0,4704,830,-1,0,0
0,4705,1390,1,0,0
0,4706,6790,1,0,0
0,4707,910,-1,0,0
0,4708,940,-1,0,0
0,4709,3330,-1,0,0
0,4710,7500,-1,0,0
0,4711,6720,1,0,0
0,4712,7320,1,0,0
0,4713,1960,1,0,0
0,4714,8420,1,0,0
0,4715,9380,1,0,0
0,4716,4850,-1,0,0
0,4717,2860,1,0,0
0,4718,1270,-1,0,0
0,4719,570,-1,0,0
0,4720,400,-1,0,0
0,4721,10200,-1,0,0
0,4722,1700,1,0,0
0,4723,3710,-1,0,0
0,4724,2210,1,0,0
0,4725,1290,1,0,0
0,4726,5430,-1,0,0
0,4727,4510,-1,0,0
0,4728,1770,-1,0,0
0,4729,5200,1,0,0
0,4730,7170,-1,0,0
0,4731,1610,-1,0,0
0,4732,5050,-1,0,0
0,4733,3090,1,0,0
0,4734,3290,-1,0,0
0,4735,770,1,0,0
0,4736,6100,1,0,0
0,4737,1580,-1,0,0
0,4738,5820,-1,0,0
0,4739,2420,-1,0,0
0,4740,2700,1,0,0
0,4741,730,1,0,0
0,4742,5520,1,0,0
0,4743,1590,-1,0,0
0,4744,6110,-1,0,0
0,4745,4330,-1,0,0
0,4746,4010,1,0,0
0,4747,2960,1,0,0
0,4748,2050,1,0,0
0,4749,1680,1,0,0
0,4750,5390,1,0,0
0,4751,3250,-1,0,0
0,4752,1120,1,0,0
0,4753,10230,-1,0,0
0,4754,2010,1,0,0
0,4755,1940,-1,0,0
0,4756,6880,1,0,0
0,4757,5020,-1,0,0
0,4758,9820,-1,0,0
0,4759,1790,1,0,0
0,4760,2700,1,0,0
0,4761,730,-1,0,0
0,4762,2230,1,0,0
0,4763,1280,1,0,0
0,4764,8500,1,0,0
0,4765,7460,1,0,0
0,4766,1430,-1,0,0
0,4767,17160,1,0,0
0,4768,3820,1,0,0
0,4769,4410,-1,0,0
0,4770,1680,-1,0,0
0,4771,1420,-1,0,0
0,4772,1270,-1,0,0
0,4773,4520,1,0,0
0,4774,5870,-1,0,0
0,4775,3250,1,0,0
0,4776,1060,-1,0,0
0,4777,8520,-1,0,0
0,4778,2470,1,0,0
0,4779,5400,1,0,0
0,4780,960,-1,0,0
0,4781,10890,-1,0,0
0,4782,2250,1,0,0
0,4783,1700,-1,0,0
0,4784,2380,-1,0,0
0,4785,5680,1,0,0
0,4786,2490,1,0,0
0,4787,2520,1,0,0
0,4788,3590,-1,0,0
0,4789,2940,-1,0,0
0,4790,1660,-1,0,0
0,4791,700,1,0,0
0,4792,6530,-1,0,0
0,4793,6310,-1,0,0
0,4794,3870,-1,0,0
0,4795,8330,-1,0,0
0,4796,600,1,0,0
0,4797,2800,1,0,0
0,4798,4080,1,0,0
0,4799,650,-1,0,0
0,4800,3230,-1,-1,0
0,4801,8990,-1,-1,0
0,4802,11150,-1,-1,0
0,4803,2770,1,-1,0
0,4804,1140,-1,-1,0
0,4805,6390,1,-1,0
0,4806,10190,1,-1,0
0,4807,3590,1,-1,0
0,4808,5430,1,-1,0
0,4809,5970,1,-1,0
0,4810,3880,1,-1,0
0,4811,1850,-1,-1,0
0,4812,8670,-1,-1,0
0,4813,1280,1,-1,0
0,4814,3460,1,-1,0
0,4815,1600,1,-1,0
0,4816,1240,-1,-1,0
0,4817,10530,1,-1,0
0,4818,9140,-1,-1,0
0,4819,1070,1,-1,0
0,4820,7660,-1,-1,0
0,4821,2180,-1,-1,0
0,4822,9440,-1,-1,0
0,4823,3820,1,-1,0
0,4824,20120,1,-1,0
0,4825,2210,-1,-1,0
0,4826,2940,1,-1,0
0,4827,1150,-1,-1,0
0,4828,740,1,-1,0
0,4829,11010,1,-1,0
0,4830,960,-1,-1,0
0,4831,910,1,-1,0
0,4832,2720,1,-1,0
0,4833,1960,1,-1,0
0,4834,7990,1,-1,0
0,4835,9620,1,-1,0
0,4836,2160,-1,-1,0
0,4837,2460,-1,-1,0
0,4838,2820,-1,-1,0
0,4839,2180,1,-1,0
0,4840,4200,-1,-1,0
0,4841,1070,-1,-1,0
0,4842,3380,-1,-1,0
0,4843,1730,-1,-1,0
0,4844,1490,-1,-1,0
0,4845,3520,1,-1,0
0,4846,1460,1,-1,0
0,4847,930,1,-1,0
0,4848,1910,-1,-1,0
0,4849,10860,1,-1,0
0,4850,4050,1,-1,0
0,4851,6190,1,-1,0
0,4852,2360,1,-1,0
0,4853,5140,1,-1,0
0,4854,4840,1,-1,0
0,4855,1670,1,-1,0
0,4856,2580,1,-1,0
0,4857,3080,1,-1,0
0,4858,6380,-1,-1,0
0,4859,1000,1,-1,0
0,4860,1730,-1,-1,0
0,4861,3720,1,-1,0
0,4862,3090,-1,-1,0
0,4863,7260,-1,-1,0
0,4864,840,1,-1,0
0,4865,7730,1,-1,0
0,4866,6770,-1,-1,0
0,4867,1000,1,-1,0
0,4868,7310,-1,-1,0
0,4869,5150,1,-1,0
0,4870,990,1,-1,0
0,4871,12500,1,-1,0
0,4872,1320,-1,-1,0
0,4873,17790,-1,-1,0
0,4874,10840,-1,-1,0
0,4875,3310,-1,-1,0
0,4876,6450,-1,-1,0
0,4877,5280,1,-1,0
0,4878,1910,-1,-1,0
0,4879,590,1,-1,0
0,4880,1790,1,-1,0
0,4881,3870,1,-1,0
0,4882,8350,1,-1,0
0,4883,820,1,-1,0
0,4884,2430,1,-1,0
0,4885,1010,1,-1,0
0,4886,6970,-1,-1,0
0,4887,2690,-1,-1,0
0,4888,2210,-1,-1,0
0,4889,6400,1,-1,0
0,4890,2860,1,-1,0
0,4891,890,-1,-1,0
0,4892,8540,1,-1,0
0,4893,6150,1,-1,0
0,4894,2780,1,-1,0
0,4895,11740,1,-1,0
0,4896,430,-1,-1,0
0,4897,4430,1,-1,0
0,4898,6290,1,-1,0
0,4899,1690,1,-1,0
0,4900,2920,-1,-1,0
0,4901,2790,1,-1,0
0,4902,1970,1,-1,0
0,4903,2000,-1,-1,0
0,4904,3500,1,-1,0
0,4905,2100,1,-1,0
0,4906,5040,1,-1,0
0,4907,1590,1,-1,0
0,4908,8800,-1,-1,0
0,4909,1910,-1,-1,0
0,4910,7330,1,-1,0
0,4911,850,1,-1,0
0,4912,7780,-1,-1,0
0,4913,4990,1,-1,0
0,4914,6120,-1,-1,0
0,4915,4680,1,-1,0
0,4916,690,1,-1,0
0,4917,4020,1,-1,0
0,4918,500,-1,-1,0
0,4919,2850,-1,-1,0
0,4920,1220,1,-1,0
0,4921,2570,-1,-1,0
0,4922,850,1,-1,0
0,4923,1190,1,-1,0
0,4924,10900,1,-1,0
0,4925,2810,1,-1,0
0,4926,970,1,-1,0
0,4927,13380,1,-1,0
0,4928,2840,1,-1,0
0,4929,11140,-1,-1,0
0,4930,8600,1,-1,0
0,4931,10210,1,-1,0
0,4932,7980,-1,-1,0
0,4933,1000,-1,-1,0
0,4934,1360,-1,-1,0
0,4935,4710,1,-1,0
0,4936,6030,-1,-1,0
0,4937,3920,-1,-1,0
0,4938,2120,1,-1,0
0,4939,3900,-1,-1,0
0,4940,1360,1,-1,0
0,4941,2010,1,-1,0
0,4942,5510,1,-1,0
0,4943,5430,1,-1,0
0,4944,4650,-1,-1,0
0,4945,17260,1,-1,0
0,4946,730,-1,-1,0
0,4947,1050,-1,-1,0
0,4948,5600,-1,-1,0
0,4949,1590,1,-1,0
0,4950,6880,-1,-1,0
0,4951,6020,1,-1,0
0,4952,5560,1,-1,0
0,4953,1550,-1,-1,0
0,4954,2420,-1,-1,0
0,4955,2740,1,-1,0
0,4956,1960,-1,-1,0
0,4957,7800,-1,-1,0
0,4958,530,1,-1,0
0,4959,3020,1,-1,0
0,4960,6520,1,-1,0
0,4961,1260,-1,-1,0
0,4962,2800,1,-1,0
0,4963,2860,-1,-1,0
0,4964,1960,1,-1,0
0,4965,4990,-1,-1,0
0,4966,680,1,-1,0
0,4967,9890,-1,-1,0
0,4968,3390,-1,-1,0
0,4969,4230,1,-1,0
0,4970,1440,-1,-1,0
0,4971,1230,1,-1,0
0,4972,3950,1,-1,0
0,4973,5050,1,-1,0
0,4974,1170,1,-1,0
0,4975,470,1,-1,0
0,4976,2020,-1,-1,0
0,4977,2810,-1,-1,0
0,4978,2490,-1,-1,0
0,4979,6300,1,-1,0
0,4980,7890,1,-1,0
0,4981,5580,1,-1,0
0,4982,1360,1,-1,0
0,4983,1910,-1,-1,0
0,4984,2040,-1,-1,0
0,4985,1780,1,-1,0
0,4986,12930,1,-1,0
0,4987,1880,-1,-1,0
0,4988,4940,-1,-1,0
0,4989,5010,-1,-1,0
0,4990,1080,1,-1,0
0,4991,1460,-1,-1,0
0,4992,1670,1,-1,0
0,4993,780,-1,-1,0
0,4994,1770,1,-1,0
0,4995,5110,1,-1,0
0,4996,8770,1,-1,0
0,4997,1040,1,-1,0
0,4998,3980,1,-1,0
0,4999,5500,-1,-1,0
0,5000,1550,-1,-1,0
0,5001,2120,1,-1,0
0,5002,1020,1,-1,0
0,5003,3020,1,-1,0
0,5004,1210,-1,-1,0
0,5005,3450,-1,-1,0
0,5006,1990,-1,-1,0
0,5007,1460,1,-1,0
0,5008,3120,-1,-1,0
0,5009,1940,-1,-1,0
0,5010,5610,1,-1,0
0,5011,670,-1,-1,0
0,5012,2900,1,-1,0
0,5013,2810,1,-1,0
0,5014,1210,-1,-1,0
0,5015,9200,1,-1,0
0,5016,2710,1,-1,0
0,5017,6450,-1,-1,0
0,5018,6320,1,-1,0
0,5019,3520,-1,-1,0
0,5020,1650,1,-1,0
0,5021,3020,1,-1,0
0,5022,7040,-1,-1,0
0,5023,2000,1,-1,0
0,5024,1020,1,-1,0
0,5025,800,1,-1,0
0,5026,4200,1,-1,0
0,5027,3740,-1,-1,0
0,5028,730,1,-1,0
0,5029,4960,1,-1,0
0,5030,3690,1,-1,0
0,5031,1400,-1,-1,0
0,5032,1400,1,-1,0
0,5033,6290,1,-1,0
0,5034,8430,-1,-1,0
0,5035,2290,1,-1,0
0,5036,5450,1,-1,0
0,5037,2450,1,-1,0
0,5038,4160,1,-1,0
0,5039,3600,1,-1,0
0,5040,4120,-1,-1,0
0,5041,10360,1,-1,0
0,5042,4300,1,-1,0
0,5043,18880,1,-1,0
0,5044,8170,-1,-1,0
0,5045,3180,1,-1,0
0,5046,4800,-1,-1,0
0,5047,9400,-1,-1,0
0,5048,6790,-1,-1,0
0,5049,1380,1,-1,0
0,5050,3340,1,-1,0
0,5051,2470,-1,-1,0
0,5052,3300,1,-1,0
0,5053,550,1,-1,0
0,5054,11930,-1,-1,0
0,5055,3600,1,-1,0
0,5056,2650,1,-1,0
0,5057,8590,1,-1,0
0,5058,1770,1,-1,0
0,5059,2140,1,-1,0
0,5060,2140,-1,-1,0
0,5061,4350,-1,-1,0
0,5062,1020,1,-1,0
0,5063,1410,1,-1,0
0,5064,1750,-1,-1,0
0,5065,2940,1,-1,0
0,5066,3950,1,-1,0
0,5067,1090,1,-1,0
0,5068,2190,-1,-1,0
0,5069,5160,-1,-1,0
0,5070,6050,-1,-1,0
0,5071,2420,-1,-1,0
0,5072,1360,1,-1,0
0,5073,1690,1,-1,0
0,5074,1680,1,-1,0
0,5075,6580,1,-1,0
0,5076,3910,1,-1,0
0,5077,12190,1,-1,0
0,5078,1600,-1,-1,0
0,5079,3270,-1,-1,0
0,5080,860,1,-1,0
0,5081,11170,1,-1,0
0,5082,3960,-1,-1,0
0,5083,1680,1,-1,0
0,5084,660,1,-1,0
0,5085,1470,-1,-1,0
0,5086,1900,1,-1,0
0,5087,3290,1,-1,0
0,5088,7990,1,-1,0
0,5089,6280,-1,-1,0
0,5090,2920,1,-1,0
0,5091,14230,1,-1,0
0,5092,7970,1,-1,0
0,5093,5640,1,-1,0
0,5094,8750,1,-1,0
0,5095,2920,1,-1,0
0,5096,6400,1,-1,0
0,5097,4570,1,-1,0
0,5098,6510,-1,-1,0
0,5099,2620,1,-1,0
0,5100,2840,1,-1,0
0,5101,12330,-1,-1,0
0,5102,5450,1,-1,0
0,5103,6830,-1,-1,0
0,5104,7880,1,-1,0
0,5105,3310,1,-1,0
0,5106,4850,1,-1,0
0,5107,1920,1,-1,0
0,5108,30750,1,-1,0
0,5109,2350,1,-1,0
0,5110,400,-1,-1,0
0,5111,1210,-1,-1,0
0,5112,7580,-1,-1,0
0,5113,970,1,-1,0
0,5114,4480,-1,-1,0
0,5115,4380,1,-1,0
0,5116,2000,1,-1,0
0,5117,4050,-1,-1,0
0,5118,2290,1,-1,0
0,5119,3950,-1,-1,0
0,5120,6320,1,-1,0
0,5121,6640,1,-1,0
0,5122,4790,-1,-1,0
0,5123,2050,1,-1,0
0,5124,2890,1,-1,0
0,5125,4350,1,-1,0
0,5126,4650,-1,-1,0
0,5127,5270,1,-1,0
0,5128,5300,1,-1,0
0,5129,1210,-1,-1,0
0,5130,6230,1,-1,0
0,5131,410,-1,-1,0
0,5132,7140,-1,-1,0
0,5133,5990,1,-1,0
0,5134,1800,1,-1,0
0,5135,1640,-1,-1,0
0,5136,2860,1,-1,0
0,5137,5340,-1,-1,0
0,5138,1420,1,-1,0
0,5139,6230,-1,-1,0
0,5140,9270,1,-1,0
0,5141,2680,1,-1,0
0,5142,2230,1,-1,0
0,5143,1460,1,-1,0
0,5144,710,-1,-1,0
0,5145,2180,-1,-1,0
0,5146,3670,1,-1,0
0,5147,1580,-1,-1,0
0,5148,920,1,-1,0
0,5149,7550,1,-1,0
0,5150,2910,1,-1,0
0,5151,2150,-1,-1,0
0,5152,3730,1,-1,0
0,5153,5320,-1,-1,0
0,5154,3680,1,-1,0
0,5155,3980,1,-1,0
0,5156,2050,-1,-1,0
0,5157,3310,1,-1,0
0,5158,4060,-1,-1,0
0,5159,1870,-1,-1,0
0,5160,3570,1,-1,0
0,5161,4650,1,-1,0
0,5162,640,1,-1,0
0,5163,2030,-1,-1,0
0,5164,660,1,-1,0
0,5165,4380,-1,-1,0
0,5166,3750,1,-1,0
0,5167,9870,1,-1,0
0,5168,790,1,-1,0
0,5169,7580,1,-1,0
0,5170,6440,1,-1,0
0,5171,900,1,-1,0
0,5172,1030,-1,-1,0
0,5173,4650,1,-1,0
0,5174,930,1,-1,0
0,5175,850,1,-1,0
0,5176,13530,1,-1,0
0,5177,1030,1,-1,0
0,5178,1840,-1,-1,0
0,5179,2470,1,-1,0
0,5180,6110,-1,-1,0
0,5181,5120,1,-1,0
0,5182,3710,1,-1,0
0,5183,7780,-1,-1,0
0,5184,2640,-1,-1,0
0,5185,7440,1,-1,0
0,5186,2050,-1,-1,0
0,5187,3020,1,-1,0
0,5188,5820,1,-1,0
0,5189,1840,-1,-1,0
0,5190,4280,1,-1,0
0,5191,1910,1,-1,0
0,5192,17000,1,-1,0
0,5193,4020,1,-1,0
0,5194,7690,-1,-1,0
0,5195,8630,1,-1,0
0,5196,2480,1,-1,0
0,5197,3530,-1,-1,0
0,5198,7580,-1,-1,0
0,5199,860,1,-1,0
0,5200,650,-1,-1,-1
0,5201,7390,-1,-1,-1
0,5202,2430,-1,-1,-1
0,5203,5540,-1,-1,-1
0,5204,1220,-1,-1,-1
0,5205,3080,-1,-1,-1
0,5206,2210,-1,-1,-1
0,5207,1640,1,-1,-1
0,5208,960,1,-1,-1
0,5209,500,-1,-1,-1
0,5210,890,1,-1,-1
0,5211,3000,-1,-1,-1
