parcode,trial,rt,choice,item_left,item_right
0,0,9690,1,1,1
0,1,1210,1,1,1
0,2,1720,1,1,1
0,3,1920,1,1,1
0,4,2060,1,1,1
0,5,3830,1,1,1
0,6,1900,1,1,1
0,7,3720,1,1,1
0,8,750,1,1,1
0,9,1500,1,1,1
0,10,1800,1,1,1
0,11,4650,1,1,1
0,12,1580,1,1,1
0,13,1620,1,1,1
0,14,810,1,1,1
0,15,4230,1,1,1
0,16,5410,1,1,1
0,17,4010,1,1,1
0,18,2470,1,1,1
0,19,1790,1,1,1
0,20,9370,1,1,1
0,21,7570,1,1,1
0,22,1530,-1,1,1
0,23,1670,1,1,1
0,24,1540,1,1,1
0,25,6140,1,1,1
0,26,4340,1,1,1
0,27,5390,-1,1,1
0,28,2120,1,1,1
0,29,1730,1,1,1
0,30,5000,1,1,1
0,31,8530,1,1,1
0,32,1060,-1,1,1
0,33,2480,1,1,1
0,34,2630,1,1,1
0,35,4790,1,1,1
0,36,530,1,1,1
0,37,800,1,1,1
0,38,3660,-1,1,1
0,39,1830,1,1,1
0,40,5800,1,1,1
0,41,3880,1,1,1
0,42,4220,1,1,1
0,43,8740,1,1,1
0,44,1080,1,1,1
0,45,3190,1,1,1
0,46,1310,-1,1,1
0,47,6690,1,1,1
0,48,2610,1,1,1
0,49,1440,1,1,1
0,50,740,1,1,1
0,51,2260,1,1,1
0,52,5740,1,1,1
0,53,4270,1,1,1
0,54,1610,1,1,1
0,55,2960,1,1,1
0,56,420,1,1,1
0,57,1530,1,1,1
0,58,690,1,1,1
0,59,7280,1,1,1
0,60,1820,1,1,1
0,61,1360,-1,1,1
0,62,3330,1,1,1
0,63,1290,1,1,1
0,64,2310,1,1,1
0,65,3810,1,1,1
0,66,5360,1,1,1
0,67,750,1,1,1
0,68,2640,-1,1,1
0,69,4570,1,1,1
0,70,1990,1,1,1
0,71,2150,1,1,1
0,72,3630,1,1,1
0,73,4390,1,1,1
0,74,2080,-1,1,1
0,75,1510,-1,1,1
0,76,2390,1,1,1
0,77,1590,1,1,1
0,78,5900,1,1,1
0,79,5230,1,1,1
0,80,730,1,1,1
0,81,2800,-1,1,1
0,82,930,1,1,1
0,83,920,1,1,1
0,84,2490,1,1,1
0,85,2690,1,1,1
0,86,430,1,1,1
0,87,870,1,1,1
0,88,2360,1,1,1
0,89,2380,1,1,1
0,90,2050,1,1,1
0,91,1290,1,1,1
0,92,1150,1,1,1
0,93,1310,1,1,1
0,94,1580,1,1,1
0,95,1270,1,1,1
0,96,4180,1,1,1
0,97,1770,1,1,1
0,98,650,1,1,1
0,99,2320,1,1,1
0,100,2680,-1,1,1
0,101,2610,1,1,1
0,102,1710,1,1,1
0,103,2410,1,1,1
0,104,1960,1,1,1
0,105,1570,1,1,1
0,106,1410,-1,1,1
0,107,1680,1,1,1
0,108,3150,1,1,1
0,109,2150,1,1,1
0,110,6950,1,1,1
0,111,3140,1,1,1
0,112,1730,1,1,1
0,113,1590,1,1,1
0,114,2310,1,1,1
0,115,3720,1,1,1
0,116,2030,-1,1,1
0,117,11670,1,1,1
0,118,2700,1,1,1
0,119,750,1,1,1
0,120,4030,1,1,1
0,121,3540,-1,1,1
0,122,4260,1,1,1
0,123,430,1,1,1
0,124,2820,1,1,1
0,125,1250,1,1,1
0,126,1570,1,1,1
0,127,1000,1,1,1
0,128,5510,1,1,1
0,129,2920,-1,1,1
0,130,2000,1,1,1
0,131,3740,1,1,1
0,132,3740,1,1,1
0,133,2510,1,1,1
0,134,3720,1,1,1
0,135,700,1,1,1
0,136,2030,1,1,1
0,137,1050,1,1,1
0,138,2780,1,1,1
0,139,810,1,1,1
0,140,3370,1,1,1
0,141,1220,1,1,1
0,142,3210,1,1,1
0,143,8200,1,1,1
0,144,1820,1,1,1
0,145,2210,1,1,1
0,146,2300,1,1,1
0,147,2030,1,1,1
0,148,3100,1,1,1
0,149,2700,1,1,1
0,150,4370,1,1,1
0,151,2200,1,1,1
0,152,13070,1,1,1
0,153,1600,1,1,1
0,154,3950,1,1,1
0,155,1900,1,1,1
0,156,1780,1,1,1
0,157,2120,1,1,1
0,158,980,1,1,1
0,159,6320,1,1,1
0,160,850,1,1,1
0,161,1030,1,1,1
0,162,2780,1,1,1
0,163,3240,1,1,1
0,164,1430,1,1,1
0,165,2940,1,1,1
0,166,2510,1,1,1
0,167,2820,1,1,1
0,168,2420,1,1,1
0,169,1540,1,1,1
0,170,2570,1,1,1
0,171,980,1,1,1
0,172,4270,1,1,1
0,173,2030,1,1,1
0,174,4160,1,1,1
0,175,3280,1,1,1
0,176,1490,1,1,1
0,177,4160,-1,1,1
0,178,620,-1,1,1
0,179,2640,1,1,1
0,180,1400,1,1,1
0,181,2170,1,1,1
0,182,1940,1,1,1
0,183,1440,1,1,1
0,184,2210,1,1,1
0,185,540,1,1,1
0,186,700,1,1,1
0,187,4140,1,1,1
0,188,2920,1,1,1
0,189,3320,1,1,1
0,190,4630,1,1,1
0,191,3630,1,1,1
0,192,1390,1,1,1
0,193,890,1,1,1
0,194,3920,-1,1,1
0,195,2820,1,1,1
0,196,1700,1,1,1
0,197,1500,1,1,1
0,198,3470,1,1,1
0,199,12370,1,1,1
0,200,4660,1,1,1
0,201,1250,1,1,1
0,202,2970,1,1,1
0,203,1910,1,1,1
0,204,1110,1,1,1
0,205,5730,1,1,1
0,206,1740,1,1,1
0,207,5450,1,1,1
0,208,2180,1,1,1
0,209,2090,1,1,1
0,210,2420,1,1,1
0,211,1300,1,1,1
0,212,2930,1,1,1
0,213,1440,1,1,1
0,214,5200,1,1,1
0,215,1480,-1,1,1
0,216,3270,1,1,1
0,217,6160,1,1,1
0,218,700,1,1,1
0,219,1290,1,1,1
0,220,3400,-1,1,1
0,221,1100,1,1,1
0,222,3800,1,1,1
0,223,3230,1,1,1
0,224,6290,1,1,1
0,225,2140,-1,1,1
0,226,3370,1,1,1
0,227,570,1,1,1
0,228,2790,1,1,1
0,229,2010,1,1,1
0,230,2340,1,1,1
0,231,6370,1,1,1
0,232,3650,1,1,1
0,233,5020,1,1,1
0,234,3820,-1,1,1
0,235,760,1,1,1
0,236,10080,1,1,1
0,237,1980,1,1,1
0,238,2850,1,1,1
0,239,4280,-1,1,1
0,240,12420,-1,1,1
0,241,1560,1,1,1
0,242,610,1,1,1
0,243,3760,1,1,1
0,244,1650,1,1,1
0,245,7140,1,1,1
0,246,2330,1,1,1
0,247,1950,1,1,1
0,248,8720,1,1,1
0,249,3270,-1,1,1
0,250,600,1,1,1
0,251,1820,1,1,1
0,252,1650,1,1,1
0,253,4670,1,1,1
0,254,2060,1,1,1
0,255,3600,-1,1,1
0,256,2890,1,1,1
0,257,1030,1,1,1
0,258,1810,1,1,1
0,259,1010,1,1,1
0,260,3980,1,1,1
0,261,2840,1,1,1
0,262,640,1,1,1
0,263,2380,-1,1,1
0,264,940,-1,1,1
0,265,3880,1,1,1
0,266,2070,1,1,1
0,267,4570,1,1,1
0,268,11180,1,1,1
0,269,1820,1,1,1
0,270,1980,1,1,1
0,271,560,1,1,1
0,272,1030,1,1,1
0,273,9250,1,1,1
0,274,1070,1,1,1
0,275,760,1,1,1
0,276,1860,1,1,1
0,277,7920,1,1,1
0,278,2840,1,1,1
0,279,2560,1,1,1
0,280,9340,1,1,1
0,281,1880,1,1,1
0,282,3650,1,1,1
0,283,5270,1,1,1
0,284,1670,1,1,1
0,285,2080,-1,1,1
0,286,4810,1,1,1
0,287,3360,1,1,1
0,288,3710,1,1,1
0,289,9280,1,1,1
0,290,1590,1,1,1
0,291,2040,1,1,1
0,292,5420,1,1,1
0,293,750,1,1,1
0,294,7880,1,1,1
0,295,1220,1,1,1
0,296,9560,1,1,1
0,297,1440,1,1,1
0,298,6390,1,1,1
0,299,3060,1,1,1
0,300,1210,1,1,1
0,301,8090,1,1,1
0,302,2780,1,1,1
0,303,4160,1,1,1
0,304,1710,1,1,1
0,305,1690,1,1,1
0,306,5040,1,1,1
0,307,3160,1,1,1
0,308,2470,1,1,1
0,309,3740,-1,1,1
0,310,8960,1,1,1
0,311,2220,1,1,1
0,312,1700,1,1,1
0,313,2760,1,1,1
0,314,1300,1,1,1
0,315,790,1,1,1
0,316,2330,1,1,1
0,317,3600,1,1,1
0,318,1970,1,1,1
0,319,2540,1,1,1
0,320,1800,1,1,1
0,321,2620,-1,1,1
0,322,2260,1,1,1
0,323,630,1,1,1
0,324,1650,1,1,1
0,325,3380,1,1,1
0,326,1520,1,1,1
0,327,3010,1,1,1
0,328,1760,1,1,1
0,329,3130,-1,1,1
0,330,1620,1,1,1
0,331,3550,1,1,1
0,332,670,1,1,1
0,333,1650,1,1,1
0,334,5900,1,1,1
0,335,3740,1,1,1
0,336,1080,1,1,1
0,337,2490,1,1,1
0,338,4170,1,1,1
0,339,5950,-1,1,1
0,340,2550,1,1,1
0,341,2640,1,1,1
0,342,1510,1,1,1
0,343,600,1,1,1
0,344,1450,1,1,1
0,345,3300,-1,1,1
0,346,6000,1,1,1
0,347,1250,-1,1,1
0,348,2030,1,1,1
0,349,5010,1,1,1
0,350,2190,1,1,1
0,351,870,1,1,1
0,352,1360,1,1,1
0,353,950,1,1,1
0,354,1570,1,1,1
0,355,1830,1,1,1
0,356,2260,1,1,1
0,357,2500,1,1,1
0,358,3150,1,1,1
0,359,840,1,1,1
0,360,3300,1,1,1
0,361,2950,1,1,1
0,362,2970,-1,1,1
0,363,6370,-1,1,1
0,364,7220,1,1,1
0,365,6220,1,1,1
0,366,820,1,1,1
0,367,2280,1,1,1
0,368,4060,1,1,1
0,369,470,1,1,1
0,370,4370,1,1,1
0,371,1070,-1,1,1
0,372,2200,-1,1,1
0,373,920,1,1,1
0,374,1420,1,1,1
0,375,970,1,1,1
0,376,3040,1,1,1
0,377,1320,1,1,1
0,378,560,1,1,1
0,379,1870,1,1,1
0,380,2850,1,1,1
0,381,1600,1,1,1
0,382,1920,1,1,1
0,383,3210,1,1,1
0,384,590,1,1,1
0,385,980,1,1,1
0,386,2610,1,1,1
0,387,1080,1,1,1
0,388,3780,1,1,1
0,389,940,1,1,1
0,390,2610,1,1,1
0,391,1440,-1,1,1
0,392,540,1,1,1
0,393,3310,1,1,1
0,394,4990,1,1,1
0,395,2040,1,1,1
0,396,1950,1,1,1
0,397,4340,1,1,1
0,398,2700,1,1,1
0,399,2210,1,1,1
0,400,1950,-1,-1,-1
0,401,5980,-1,-1,-1
0,402,2060,-1,-1,-1
0,403,4120,1,-1,-1
0,404,1620,1,-1,-1
0,405,5410,-1,-1,-1
0,406,1070,1,-1,-1
0,407,1250,1,-1,-1
0,408,13970,1,-1,-1
0,409,14040,-1,-1,-1
0,410,1510,1,-1,-1
0,411,2480,-1,-1,-1
0,412,13270,1,-1,-1
0,413,1400,-1,-1,-1
0,414,2950,-1,-1,-1
0,415,1140,1,-1,-1
0,416,3560,1,-1,-1
0,417,10020,1,-1,-1
0,418,1090,1,-1,-1
0,419,1090,-1,-1,-1
0,420,4860,1,-1,-1
0,421,6280,-1,-1,-1
0,422,14320,-1,-1,-1
0,423,4300,-1,-1,-1
0,424,8230,1,-1,-1
0,425,8530,1,-1,-1
0,426,9290,-1,-1,-1
0,427,4280,-1,-1,-1
0,428,1730,-1,-1,-1
0,429,3400,-1,-1,-1
0,430,3440,-1,-1,-1
0,431,2730,1,-1,-1
0,432,3860,1,-1,-1
0,433,2210,1,-1,-1
0,434,1920,1,-1,-1
0,435,12150,-1,-1,-1
0,436,6370,1,-1,-1
0,437,2440,1,-1,-1
0,438,4280,-1,-1,-1
0,439,14630,-1,-1,-1
0,440,7160,1,-1,-1
0,441,2190,1,-1,-1
0,442,1100,-1,-1,-1
0,443,2580,-1,-1,-1
0,444,2770,-1,-1,-1
0,445,430,-1,-1,-1
0,446,2920,-1,-1,-1
0,447,3940,1,-1,-1
0,448,1340,1,-1,-1
0,449,4250,1,-1,-1
0,450,2210,-1,-1,-1
0,451,1910,-1,-1,-1
0,452,1070,1,-1,-1
0,453,830,-1,-1,-1
0,454,3420,1,-1,-1
0,455,970,1,-1,-1
0,456,4020,1,-1,-1
0,457,1850,-1,-1,-1
0,458,3600,-1,-1,-1
0,459,1160,1,-1,-1
0,460,4560,-1,-1,-1
0,461,5600,1,-1,-1
0,462,2510,1,-1,-1
0,463,1880,-1,-1,-1
0,464,1660,1,-1,-1
0,465,7380,1,-1,-1
0,466,1040,-1,-1,-1
0,467,2660,-1,-1,-1
0,468,1780,1,-1,-1
0,469,1500,1,-1,-1
0,470,5290,-1,-1,-1
0,471,2460,-1,-1,-1
0,472,880,1,-1,-1
0,473,4110,-1,-1,-1
0,474,8760,1,-1,-1
0,475,2390,1,-1,-1
0,476,6750,1,-1,-1
0,477,570,1,-1,-1
0,478,2360,1,-1,-1
0,479,5390,1,-1,-1
0,480,6240,1,-1,-1
0,481,3880,1,-1,-1
0,482,3970,-1,-1,-1
0,483,1300,1,-1,-1
0,484,2980,-1,-1,-1
0,485,12220,-1,-1,-1
0,486,5000,-1,-1,-1
0,487,920,1,-1,-1
0,488,6170,1,-1,-1
0,489,1320,1,-1,-1
0,490,8910,-1,-1,-1
0,491,900,1,-1,-1
0,492,2910,1,-1,-1
0,493,7940,-1,-1,-1
0,494,6180,-1,-1,-1
0,495,3430,-1,-1,-1
0,496,5680,1,-1,-1
0,497,6170,1,-1,-1
0,498,8780,1,-1,-1
0,499,4330,-1,-1,-1
0,500,2170,-1,-1,-1
0,501,1710,1,-1,-1
0,502,3080,-1,-1,-1
0,503,5530,1,-1,-1
0,504,6060,-1,-1,-1
0,505,630,1,-1,-1
0,506,2360,1,-1,-1
0,507,5160,-1,-1,-1
0,508,7430,1,-1,-1
0,509,8520,-1,-1,-1
0,510,840,-1,-1,-1
0,511,1660,1,-1,-1
0,512,1480,1,-1,-1
0,513,1670,1,-1,-1
0,514,6590,1,-1,-1
0,515,1990,1,-1,-1
0,516,8370,-1,-1,-1
0,517,3420,1,-1,-1
0,518,2370,-1,-1,-1
0,519,3710,1,-1,-1
0,520,2830,1,-1,-1
0,521,2460,1,-1,-1
0,522,4960,-1,-1,-1
0,523,1860,1,-1,-1
0,524,1260,-1,-1,-1
0,525,4320,1,-1,-1
0,526,9900,-1,-1,-1
0,527,2000,1,-1,-1
0,528,6610,1,-1,-1
0,529,5400,-1,-1,-1
0,530,6440,-1,-1,-1
0,531,6130,-1,-1,-1
0,532,6420,-1,-1,-1
0,533,4790,-1,-1,-1
0,534,3470,1,-1,-1
0,535,2160,-1,-1,-1
0,536,2290,-1,-1,-1
0,537,2010,-1,-1,-1
0,538,2820,-1,-1,-1
0,539,3900,-1,-1,-1
0,540,1950,-1,-1,-1
0,541,12270,-1,-1,-1
0,542,550,1,-1,-1
0,543,1310,-1,-1,-1
0,544,6470,-1,-1,-1
0,545,3520,-1,-1,-1
0,546,3510,1,-1,-1
0,547,3440,1,-1,-1
0,548,6000,-1,-1,-1
0,549,6480,1,-1,-1
0,550,7610,1,-1,-1
0,551,3960,1,-1,-1
0,552,3010,1,-1,-1
0,553,1340,-1,-1,-1
0,554,4210,1,-1,-1
0,555,8680,1,-1,-1
0,556,1680,1,-1,-1
0,557,12310,1,-1,-1
0,558,3520,1,-1,-1
0,559,3350,1,-1,-1
0,560,2880,1,-1,-1
0,561,1350,-1,-1,-1
0,562,10590,1,-1,-1
0,563,1170,1,-1,-1
0,564,880,-1,-1,-1
0,565,3740,1,-1,-1
0,566,16900,1,-1,-1
0,567,3740,-1,-1,-1
0,568,510,1,-1,-1
0,569,9150,1,-1,-1
0,570,8180,-1,-1,-1
0,571,7240,-1,-1,-1
0,572,2070,1,-1,-1
0,573,1810,1,-1,-1
0,574,6900,1,-1,-1
0,575,3780,-1,-1,-1
0,576,970,-1,-1,-1
0,577,6960,1,-1,-1
0,578,4530,1,-1,-1
0,579,2350,1,-1,-1
0,580,3840,-1,-1,-1
0,581,12610,-1,-1,-1
0,582,5740,-1,-1,-1
0,583,14070,-1,-1,-1
0,584,3970,1,-1,-1
0,585,3650,1,-1,-1
0,586,7680,1,-1,-1
0,587,2590,-1,-1,-1
0,588,3900,-1,-1,-1
0,589,2040,1,-1,-1
0,590,10370,-1,-1,-1
0,591,5390,-1,-1,-1
0,592,640,-1,-1,-1
0,593,3110,1,-1,-1
0,594,1600,1,-1,-1
0,595,3970,-1,-1,-1
0,596,4110,1,-1,-1
0,597,500,1,-1,-1
0,598,770,1,-1,-1
0,599,2840,-1,-1,-1
0,600,2270,-1,-1,-1
0,601,9720,1,-1,-1
0,602,1580,-1,-1,-1
0,603,1080,1,-1,-1
0,604,4060,1,-1,-1
0,605,1740,1,-1,-1
0,606,5630,-1,-1,-1
0,607,960,-1,-1,-1
0,608,4560,1,-1,-1
0,609,980,1,-1,-1
0,610,7420,-1,-1,-1
0,611,3260,1,-1,-1
0,612,1950,-1,-1,-1
0,613,4690,1,-1,-1
0,614,1470,1,-1,-1
0,615,4370,-1,-1,-1
0,616,3090,1,-1,-1
0,617,2340,-1,-1,-1
0,618,9960,1,-1,-1
0,619,3400,1,-1,-1
0,620,1690,1,-1,-1
0,621,6090,1,-1,-1
0,622,730,1,-1,-1
0,623,6440,-1,-1,-1
0,624,1510,-1,-1,-1
0,625,2620,1,-1,-1
0,626,3800,1,-1,-1
0,627,1440,-1,-1,-1
0,628,1140,-1,-1,-1
0,629,4160,1,-1,-1
0,630,3760,-1,-1,-1
0,631,6550,-1,-1,-1
0,632,2490,1,-1,-1
0,633,2730,-1,-1,-1
0,634,1160,-1,-1,-1
0,635,7690,-1,-1,-1
0,636,720,1,-1,-1
0,637,710,1,-1,-1
0,638,2350,1,-1,-1
0,639,7370,1,-1,-1
0,640,1230,-1,-1,-1
0,641,2520,-1,-1,-1
0,642,1240,-1,-1,-1
0,643,7600,1,-1,-1
0,644,3480,-1,-1,-1
0,645,3200,1,-1,-1
0,646,4910,-1,-1,-1
0,647,5070,1,-1,-1
0,648,5670,1,-1,-1
0,649,8280,-1,-1,-1
0,650,2860,1,-1,-1
0,651,3750,-1,-1,-1
0,652,790,1,-1,-1
0,653,3260,1,-1,-1
0,654,3040,1,-1,-1
0,655,2380,-1,-1,-1
0,656,1780,1,-1,-1
0,657,12750,-1,-1,-1
0,658,820,1,-1,-1
0,659,9960,1,-1,-1
0,660,3040,1,-1,-1
0,661,24440,1,-1,-1
0,662,9340,1,-1,-1
0,663,1730,-1,-1,-1
0,664,3330,-1,-1,-1
0,665,4200,1,-1,-1
0,666,2070,1,-1,-1
0,667,5710,1,-1,-1
0,668,3330,1,-1,-1
0,669,2170,1,-1,-1
0,670,1270,1,-1,-1
0,671,7770,-1,-1,-1
0,672,900,-1,-1,-1
0,673,10300,1,-1,-1
0,674,7610,-1,-1,-1
0,675,5680,1,-1,-1
0,676,7860,1,-1,-1
0,677,5170,1,-1,-1
0,678,1940,-1,-1,-1
0,679,2040,-1,-1,-1
0,680,3940,-1,-1,-1
0,681,1170,-1,-1,-1
0,682,770,1,-1,-1
0,683,1870,1,-1,-1
0,684,1710,1,-1,-1
0,685,1030,1,-1,-1
0,686,7210,1,-1,-1
0,687,3910,1,-1,-1
0,688,2480,1,-1,-1
0,689,3060,1,-1,-1
0,690,10440,-1,-1,-1
0,691,5060,-1,-1,-1
0,692,4990,-1,-1,-1
0,693,9860,1,-1,-1
0,694,7250,1,-1,-1
0,695,4040,1,-1,-1
0,696,1590,-1,-1,-1
0,697,1300,1,-1,-1
0,698,4640,1,-1,-1
0,699,2590,-1,-1,-1
0,700,1340,1,-1,-1
0,701,8270,-1,-1,-1
0,702,1990,-1,-1,-1
0,703,3430,1,-1,-1
0,704,2760,1,-1,-1
0,705,7410,1,-1,-1
0,706,14780,1,-1,-1
0,707,4550,1,-1,-1
0,708,4190,1,-1,-1
0,709,11410,1,-1,-1
0,710,1150,1,-1,-1
0,711,1150,-1,-1,-1
0,712,660,1,-1,-1
0,713,3480,-1,-1,-1
0,714,8500,1,-1,-1
0,715,10290,1,-1,-1
0,716,2030,1,-1,-1
0,717,2200,-1,-1,-1
0,718,2140,1,-1,-1
0,719,1580,1,-1,-1
0,720,1720,1,-1,-1
0,721,14350,1,-1,-1
0,722,3110,-1,-1,-1
0,723,4970,-1,-1,-1
0,724,9460,1,-1,-1
0,725,1430,1,-1,-1
0,726,4430,-1,-1,-1
0,727,1100,-1,-1,-1
0,728,7360,1,-1,-1
0,729,9810,1,-1,-1
0,730,1730,-1,-1,-1
0,731,8960,1,-1,-1
0,732,2410,-1,-1,-1
0,733,8450,1,-1,-1
0,734,5810,1,-1,-1
0,735,880,1,-1,-1
0,736,10540,1,-1,-1
0,737,5450,1,-1,-1
0,738,1900,-1,-1,-1
0,739,2260,-1,-1,-1
0,740,6950,-1,-1,-1
0,741,6870,1,-1,-1
0,742,2310,1,-1,-1
0,743,2520,1,-1,-1
0,744,2040,-1,-1,-1
0,745,720,1,-1,-1
0,746,2960,-1,-1,-1
0,747,860,1,-1,-1
0,748,1410,1,-1,-1
0,749,7580,1,-1,-1
0,750,700,1,-1,-1
0,751,1720,1,-1,-1
0,752,8010,1,-1,-1
0,753,2090,-1,-1,-1
0,754,560,1,-1,-1
0,755,7050,-1,-1,-1
0,756,1020,1,-1,-1
0,757,9700,1,-1,-1
0,758,1660,1,-1,-1
0,759,6730,-1,-1,-1
0,760,6040,-1,-1,-1
0,761,4560,-1,-1,-1
0,762,2250,1,-1,-1
0,763,3330,-1,-1,-1
0,764,1190,1,-1,-1
0,765,4900,1,-1,-1
0,766,1110,1,-1,-1
0,767,4130,1,-1,-1
0,768,9770,-1,-1,-1
0,769,4660,1,-1,-1
0,770,8970,-1,-1,-1
0,771,620,-1,-1,-1
0,772,1240,-1,-1,-1
0,773,5160,-1,-1,-1
0,774,3610,1,-1,-1
0,775,2190,1,-1,-1
0,776,3670,1,-1,-1
0,777,6800,-1,-1,-1
0,778,11500,-1,-1,-1
0,779,2820,1,-1,-1
0,780,3940,1,-1,-1
0,781,2590,1,-1,-1
0,782,570,-1,-1,-1
0,783,5140,1,-1,-1
0,784,12400,1,-1,-1
0,785,770,-1,-1,-1
0,786,3250,1,-1,-1
0,787,1240,1,-1,-1
0,788,4540,1,-1,-1
0,789,1810,-1,-1,-1
0,790,1620,-1,-1,-1
0,791,4290,-1,-1,-1
0,792,4880,1,-1,-1
0,793,7270,1,-1,-1
0,794,2970,1,-1,-1
0,795,4860,-1,-1,-1
0,796,12260,1,-1,-1
0,797,8420,1,-1,-1
0,798,1310,1,-1,-1
0,799,870,1,-1,-1
0,800,3990,-1,-1,-1
0,801,4750,-1,-1,-1
0,802,13980,-1,-1,-1
0,803,3340,1,-1,-1
0,804,3110,-1,-1,-1
0,805,3320,-1,-1,-1
0,806,4950,1,-1,-1
0,807,960,-1,-1,-1
0,808,4740,1,-1,-1
0,809,1790,1,-1,-1
0,810,2350,-1,-1,-1
0,811,1930,1,-1,-1
0,812,990,1,-1,-1
0,813,8800,-1,-1,-1
0,814,4120,-1,-1,-1
0,815,1310,-1,-1,-1
0,816,3380,1,-1,-1
0,817,2690,-1,-1,-1
0,818,6680,-1,-1,-1
0,819,3970,-1,-1,-1
0,820,2900,1,-1,-1
0,821,5410,-1,-1,-1
0,822,4410,-1,-1,-1
0,823,3890,-1,-1,-1
0,824,7830,-1,-1,-1
0,825,1280,-1,-1,-1
0,826,3370,-1,-1,-1
0,827,1880,1,-1,-1
0,828,5850,-1,-1,-1
0,829,5050,-1,-1,-1
0,830,4210,-1,-1,-1
0,831,760,1,-1,-1
0,832,1890,1,-1,-1
0,833,4380,-1,-1,-1
0,834,6630,-1,-1,-1
0,835,6940,1,-1,-1
0,836,1930,-1,-1,-1
0,837,890,-1,-1,-1
0,838,15010,-1,-1,-1
0,839,1410,1,-1,-1
0,840,1360,-1,-1,-1
0,841,4890,1,-1,-1
0,842,4620,-1,-1,-1
0,843,2050,1,-1,-1
0,844,2670,-1,-1,-1
0,845,2030,1,-1,-1
0,846,820,1,-1,-1
0,847,4200,-1,-1,-1
0,848,5590,-1,-1,-1
0,849,2090,-1,-1,-1
0,850,3740,-1,-1,-1
0,851,1230,-1,-1,-1
0,852,2980,-1,-1,-1
0,853,12990,1,-1,-1
0,854,790,-1,-1,-1
0,855,3240,1,-1,-1
0,856,2470,1,-1,-1
0,857,4610,1,-1,-1
0,858,3530,1,-1,-1
0,859,6220,-1,-1,-1
0,860,1270,-1,-1,-1
0,861,10280,1,-1,-1
0,862,5640,1,-1,-1
0,863,6570,1,-1,-1
0,864,3060,1,-1,-1
0,865,1370,-1,-1,-1
0,866,1000,1,-1,-1
0,867,600,-1,-1,-1
0,868,8170,1,-1,-1
0,869,10320,1,-1,-1
0,870,3250,1,-1,-1
0,871,3850,-1,-1,-1
0,872,4120,-1,-1,-1
0,873,3380,-1,-1,-1
0,874,6010,-1,-1,-1
0,875,12770,-1,-1,-1
0,876,10140,-1,-1,-1
0,877,8920,1,-1,-1
0,878,2520,-1,-1,-1
0,879,2780,1,-1,-1
0,880,8230,1,-1,-1
0,881,680,-1,-1,-1
0,882,16350,1,-1,-1
0,883,4530,1,-1,-1
0,884,5070,1,-1,-1
0,885,1250,1,-1,-1
0,886,2650,1,-1,-1
0,887,1120,1,-1,-1
0,888,1210,-1,-1,-1
0,889,6150,-1,-1,-1
0,890,3880,-1,-1,-1
0,891,13880,-1,-1,-1
0,892,6740,-1,-1,-1
0,893,6550,1,-1,-1
0,894,2250,-1,-1,-1
0,895,2840,-1,-1,-1
0,896,2820,-1,-1,-1
0,897,9350,1,-1,-1
0,898,6490,-1,-1,-1
0,899,6780,-1,-1,-1
0,900,4750,1,-1,-1
0,901,1700,1,-1,-1
0,902,5030,1,-1,-1
0,903,1510,-1,-1,-1
0,904,2710,-1,-1,-1
0,905,760,-1,-1,-1
0,906,520,-1,-1,-1
0,907,1700,-1,-1,-1
0,908,8790,-1,-1,-1
0,909,6240,-1,-1,-1
0,910,4030,-1,-1,-1
0,911,6820,-1,-1,-1
0,912,3460,1,-1,-1
0,913,7110,-1,-1,-1
0,914,9610,-1,-1,-1
0,915,3240,1,-1,-1
0,916,5140,-1,-1,-1
0,917,9440,-1,-1,-1
0,918,7580,-1,-1,-1
0,919,2570,-1,-1,-1
0,920,6660,-1,-1,-1
0,921,2890,-1,-1,-1
0,922,2720,-1,-1,-1
0,923,1720,1,-1,-1
0,924,11170,1,-1,-1
0,925,2670,1,-1,-1
0,926,2370,-1,-1,-1
0,927,3920,1,-1,-1
0,928,1800,1,-1,-1
0,929,4610,-1,-1,-1
0,930,3930,-1,-1,-1
0,931,2710,-1,-1,-1
0,932,1870,-1,-1,-1
0,933,2420,-1,-1,-1
0,934,6800,1,-1,-1
0,935,3880,-1,-1,-1
0,936,8890,-1,-1,-1
0,937,3190,-1,-1,-1
0,938,6610,-1,-1,-1
0,939,3100,1,-1,-1
0,940,6030,-1,-1,-1
0,941,720,-1,-1,-1
0,942,3080,-1,-1,-1
0,943,2290,1,-1,-1
0,944,1690,-1,-1,-1
0,945,1260,-1,-1,-1
0,946,1700,-1,-1,-1
0,947,2250,1,-1,-1
0,948,3800,-1,-1,-1
0,949,9540,-1,-1,-1
0,950,2360,-1,-1,-1
0,951,5560,-1,-1,-1
0,952,1980,1,-1,-1
0,953,1710,-1,-1,-1
0,954,4420,-1,-1,-1
0,955,1570,-1,-1,-1
0,956,4400,-1,-1,-1
0,957,3840,-1,-1,-1
0,958,6760,-1,-1,-1
0,959,3270,-1,-1,-1
0,960,2540,-1,-1,-1
0,961,1360,-1,-1,-1
0,962,3040,-1,-1,-1
0,963,4380,-1,-1,-1
0,964,2640,1,-1,-1
0,965,10490,1,-1,-1
0,966,8520,1,-1,-1
0,967,3670,1,-1,-1
0,968,4130,1,-1,-1
0,969,4470,-1,-1,-1
0,970,1840,-1,-1,-1
0,971,800,1,-1,-1
0,972,2200,-1,-1,-1
0,973,3850,1,-1,-1
0,974,3480,-1,-1,-1
0,975,1330,1,-1,-1
0,976,7300,-1,-1,-1
0,977,3090,-1,-1,-1
0,978,760,1,-1,-1
0,979,630,-1,-1,-1
0,980,10930,1,-1,-1
0,981,1890,-1,-1,-1
0,982,570,-1,-1,-1
0,983,1910,-1,-1,-1
0,984,1960,-1,-1,-1
0,985,11110,-1,-1,-1
0,986,13760,-1,-1,-1
0,987,1040,-1,-1,-1
0,988,2830,-1,-1,-1
0,989,1610,-1,-1,-1
0,990,4020,-1,-1,-1
0,991,4070,-1,-1,-1
0,992,1690,-1,-1,-1
0,993,2970,1,-1,-1
0,994,3060,-1,-1,-1
0,995,3620,-1,-1,-1
0,996,3740,-1,-1,-1
0,997,2030,-1,-1,-1
0,998,1500,-1,-1,-1
0,999,1740,-1,-1,-1
0,1000,1780,-1,-1,-1
0,1001,1730,-1,-1,-1
0,1002,1620,-1,-1,-1
0,1003,8430,1,-1,-1
0,1004,3230,-1,-1,-1
0,1005,2660,-1,-1,-1
0,1006,10480,1,-1,-1
0,1007,3590,-1,-1,-1
0,1008,2260,-1,-1,-1
0,1009,3760,-1,-1,-1
0,1010,9410,-1,-1,-1
0,1011,2130,-1,-1,-1
0,1012,2560,1,-1,-1
0,1013,1450,-1,-1,-1
0,1014,5560,1,-1,-1
0,1015,8100,1,-1,-1
0,1016,870,-1,-1,-1
0,1017,4770,-1,-1,-1
0,1018,2350,-1,-1,-1
0,1019,5000,1,-1,-1
0,1020,1320,-1,-1,-1
0,1021,2760,-1,-1,-1
0,1022,1460,-1,-1,-1
0,1023,2260,-1,-1,-1
0,1024,1060,1,-1,-1
0,1025,2950,1,-1,-1
0,1026,2290,1,-1,-1
0,1027,830,1,-1,-1
0,1028,3360,1,-1,-1
0,1029,9670,-1,-1,-1
0,1030,3650,-1,-1,-1
0,1031,630,1,-1,-1
0,1032,940,-1,-1,-1
0,1033,2370,-1,-1,-1
0,1034,5190,1,-1,-1
0,1035,1950,-1,-1,-1
0,1036,2440,-1,-1,-1
0,1037,2170,1,-1,-1
0,1038,2630,-1,-1,-1
0,1039,6350,1,-1,-1
0,1040,4800,-1,-1,-1
0,1041,11240,1,-1,-1
0,1042,3440,-1,-1,-1
0,1043,1790,1,-1,-1
0,1044,9750,1,-1,-1
0,1045,1860,1,-1,-1
0,1046,2710,-1,-1,-1
0,1047,5580,-1,-1,-1
0,1048,2300,-1,-1,-1
0,1049,4270,1,-1,-1
0,1050,4470,1,-1,-1
0,1051,910,-1,-1,-1
0,1052,8170,1,-1,-1
0,1053,7560,1,-1,-1
0,1054,650,-1,-1,-1
0,1055,2430,-1,-1,-1
0,1056,6160,1,-1,-1
0,1057,5020,1,-1,-1
0,1058,8060,1,-1,-1
0,1059,830,1,-1,-1
0,1060,12880,1,-1,-1
0,1061,7200,-1,-1,-1
0,1062,4190,-1,-1,-1
0,1063,1770,-1,-1,-1
0,1064,2640,-1,-1,-1
0,1065,2050,-1,-1,-1
0,1066,5230,-1,-1,-1
0,1067,10390,-1,-1,-1
0,1068,2570,-1,-1,-1
0,1069,1860,-1,-1,-1
0,1070,6600,-1,-1,-1
0,1071,1900,-1,-1,-1
0,1072,1590,-1,-1,-1
0,1073,1230,-1,-1,-1
0,1074,6520,-1,-1,-1
0,1075,810,-1,-1,-1
0,1076,2390,1,-1,-1
0,1077,2720,1,-1,-1
0,1078,11280,-1,-1,-1
0,1079,2870,1,-1,-1
0,1080,4870,-1,-1,-1
0,1081,3280,1,-1,-1
0,1082,740,-1,-1,-1
0,1083,5730,-1,-1,-1
0,1084,3060,1,-1,-1
0,1085,5210,-1,-1,-1
0,1086,4030,-1,-1,-1
0,1087,1070,-1,-1,-1
0,1088,6500,1,-1,-1
0,1089,3440,-1,-1,-1
0,1090,2250,-1,-1,-1
0,1091,6200,1,-1,-1
0,1092,9190,-1,-1,-1
0,1093,9030,1,-1,-1
0,1094,9390,-1,-1,-1
0,1095,1640,-1,-1,-1
0,1096,4660,-1,-1,-1
0,1097,15550,-1,-1,-1
0,1098,1910,1,-1,-1
0,1099,1750,1,-1,-1
0,1100,2660,-1,-1,-1
0,1101,6670,-1,-1,-1
0,1102,6060,1,-1,-1
0,1103,3380,-1,-1,-1
0,1104,6190,-1,-1,-1
0,1105,1910,-1,-1,-1
0,1106,1930,1,-1,-1
0,1107,3190,-1,-1,-1
0,1108,6660,-1,-1,-1
0,1109,2420,-1,-1,-1
0,1110,3280,-1,-1,-1
0,1111,6190,-1,-1,-1
0,1112,3380,1,-1,-1
0,1113,1830,1,-1,-1
0,1114,6130,-1,-1,-1
0,1115,8000,-1,-1,-1
0,1116,6560,-1,-1,-1
0,1117,13000,1,-1,-1
0,1118,3170,-1,-1,-1
0,1119,3270,1,-1,-1
0,1120,3700,1,-1,-1
0,1121,4120,-1,-1,-1
0,1122,1150,-1,-1,-1
0,1123,3540,1,-1,-1
0,1124,1570,-1,-1,-1
0,1125,730,-1,-1,-1
0,1126,4560,1,-1,-1
0,1127,3670,-1,-1,-1
0,1128,6510,1,-1,-1
0,1129,5400,-1,-1,-1
0,1130,1610,1,-1,-1
0,1131,2700,1,-1,-1
0,1132,1570,1,-1,-1
0,1133,850,-1,-1,-1
0,1134,840,-1,-1,-1
0,1135,1610,-1,-1,-1
0,1136,4210,-1,-1,-1
0,1137,4100,1,-1,-1
0,1138,4400,-1,-1,-1
0,1139,6350,-1,-1,-1
0,1140,2060,-1,-1,-1
0,1141,1010,-1,-1,-1
0,1142,1760,1,-1,-1
0,1143,2960,1,-1,-1
0,1144,700,-1,-1,-1
0,1145,2290,-1,-1,-1
0,1146,4420,-1,-1,-1
0,1147,2050,1,-1,-1
0,1148,2980,1,-1,-1
0,1149,8360,1,-1,-1
0,1150,2520,1,-1,-1
0,1151,2030,-1,-1,-1
0,1152,5980,-1,-1,-1
0,1153,2070,-1,-1,-1
0,1154,3640,-1,-1,-1
0,1155,3450,-1,-1,-1
0,1156,10340,-1,-1,-1
0,1157,620,-1,-1,-1
0,1158,1650,1,-1,-1
0,1159,1510,-1,-1,-1
0,1160,3130,-1,-1,-1
0,1161,2070,-1,-1,-1
0,1162,4240,-1,-1,-1
0,1163,3000,1,-1,-1
0,1164,6440,1,-1,-1
0,1165,4680,-1,-1,-1
0,1166,720,-1,-1,-1
0,1167,2890,-1,-1,-1
0,1168,2550,1,-1,-1
0,1169,1210,-1,-1,-1
0,1170,2860,-1,-1,-1
0,1171,5400,-1,-1,-1
0,1172,1990,-1,-1,-1
0,1173,2070,-1,-1,-1
0,1174,3910,-1,-1,-1
0,1175,5450,-1,-1,-1
0,1176,3950,1,-1,-1
0,1177,5920,1,-1,-1
0,1178,9050,-1,-1,-1
0,1179,3390,1,-1,-1
0,1180,4880,1,-1,-1
0,1181,770,1,-1,-1
0,1182,4440,-1,-1,-1
0,1183,12930,-1,-1,-1
0,1184,5600,-1,-1,-1
0,1185,4340,-1,-1,-1
0,1186,700,-1,-1,-1
0,1187,4480,1,-1,-1
0,1188,3580,-1,-1,-1
0,1189,3960,-1,-1,-1
0,1190,4680,-1,-1,-1
0,1191,2620,-1,-1,-1
0,1192,1730,-1,-1,-1
0,1193,1170,1,-1,-1
0,1194,11430,-1,-1,-1
0,1195,1460,-1,-1,-1
0,1196,4570,1,-1,-1
0,1197,1670,-1,-1,-1
0,1198,5940,-1,-1,-1
0,1199,1000,1,-1,-1
0,1200,2080,-1,0,-1
0,1201,1210,1,0,-1
0,1202,2210,-1,0,-1
0,1203,4230,1,0,-1
0,1204,7210,-1,0,-1
0,1205,1530,-1,0,-1
0,1206,14370,-1,0,-1
0,1207,1730,1,0,-1
0,1208,3830,1,0,-1
0,1209,430,1,0,-1
0,1210,1090,-1,0,-1
0,1211,650,-1,0,-1
0,1212,3400,1,0,-1
0,1213,1180,1,0,-1
0,1214,7950,-1,0,-1
0,1215,1090,-1,0,-1
0,1216,6200,1,0,-1
0,1217,1260,-1,0,-1
0,1218,2260,-1,0,-1
0,1219,2920,1,0,-1
0,1220,10380,-1,0,-1
0,1221,5720,-1,0,-1
0,1222,3600,1,0,-1
0,1223,2550,-1,0,-1
0,1224,1680,1,0,-1
0,1225,5570,1,0,-1
0,1226,1100,-1,0,-1
0,1227,2800,1,0,-1
0,1228,4550,-1,0,-1
0,1229,2420,1,0,-1
0,1230,4610,-1,0,-1
0,1231,4950,1,0,-1
0,1232,9750,1,0,-1
0,1233,4010,1,0,-1
0,1234,5480,-1,0,-1
0,1235,1060,-1,0,-1
0,1236,4980,1,0,-1
0,1237,4560,1,0,-1
0,1238,1260,-1,0,-1
0,1239,2380,1,0,-1
0,1240,1360,-1,0,-1
0,1241,6990,-1,0,-1
0,1242,4990,-1,0,-1
0,1243,2650,-1,0,-1
0,1244,16810,1,0,-1
0,1245,6430,-1,0,-1
0,1246,920,1,0,-1
0,1247,830,-1,0,-1
0,1248,2740,1,0,-1
0,1249,1800,-1,0,-1
0,1250,7440,1,0,-1
0,1251,1600,-1,0,-1
0,1252,5050,1,0,-1
0,1253,3010,1,0,-1
0,1254,1340,1,0,-1
0,1255,3030,-1,0,-1
0,1256,4160,-1,0,-1
0,1257,5620,-1,0,-1
0,1258,18700,1,0,-1
0,1259,4940,1,0,-1
0,1260,1200,1,0,-1
0,1261,5750,-1,0,-1
0,1262,1810,-1,0,-1
0,1263,2160,-1,0,-1
0,1264,4250,-1,0,-1
0,1265,5520,-1,0,-1
0,1266,2790,1,0,-1
0,1267,3740,-1,0,-1
0,1268,1700,-1,0,-1
0,1269,1650,-1,0,-1
0,1270,4080,-1,0,-1
0,1271,5110,-1,0,-1
0,1272,12900,-1,0,-1
0,1273,1570,1,0,-1
0,1274,8050,-1,0,-1
0,1275,7300,-1,0,-1
0,1276,5910,-1,0,-1
0,1277,810,-1,0,-1
0,1278,2410,1,0,-1
0,1279,3520,1,0,-1
0,1280,8990,1,0,-1
0,1281,1380,-1,0,-1
0,1282,2890,-1,0,-1
0,1283,2580,-1,0,-1
0,1284,2800,1,0,-1
0,1285,1960,1,0,-1
0,1286,1880,1,0,-1
0,1287,4270,1,0,-1
0,1288,2320,1,0,-1
0,1289,2570,-1,0,-1
0,1290,2700,-1,0,-1
0,1291,4820,-1,0,-1
0,1292,1790,1,0,-1
0,1293,1040,-1,0,-1
0,1294,4970,1,0,-1
0,1295,9330,-1,0,-1
0,1296,1510,-1,0,-1
0,1297,2430,1,0,-1
0,1298,4600,-1,0,-1
0,1299,3070,-1,0,-1
0,1300,4170,-1,0,-1
0,1301,2190,-1,0,-1
0,1302,3440,-1,0,-1
0,1303,3670,-1,0,-1
0,1304,12750,-1,0,-1
0,1305,5560,-1,0,-1
0,1306,1670,-1,0,-1
0,1307,13520,-1,0,-1
0,1308,770,1,0,-1
0,1309,14160,-1,0,-1
0,1310,1270,1,0,-1
0,1311,2450,-1,0,-1
0,1312,2020,-1,0,-1
0,1313,4150,-1,0,-1
0,1314,3810,-1,0,-1
0,1315,2040,1,0,-1
0,1316,3050,-1,0,-1
0,1317,2910,-1,0,-1
0,1318,3210,-1,0,-1
0,1319,2970,-1,0,-1
0,1320,1130,-1,0,-1
0,1321,2490,-1,0,-1
0,1322,4800,1,0,-1
0,1323,2250,1,0,-1
0,1324,10480,-1,0,-1
0,1325,4990,-1,0,-1
0,1326,9050,-1,0,-1
0,1327,1580,-1,0,-1
0,1328,1420,-1,0,-1
0,1329,6350,-1,0,-1
0,1330,12720,-1,0,-1
0,1331,1020,1,0,-1
0,1332,4310,-1,0,-1
0,1333,2460,1,0,-1
0,1334,1920,-1,0,-1
0,1335,940,-1,0,-1
0,1336,7820,1,0,-1
0,1337,2740,1,0,-1
0,1338,4210,-1,0,-1
0,1339,580,-1,0,-1
0,1340,2160,1,0,-1
0,1341,11790,-1,0,-1
0,1342,3150,-1,0,-1
0,1343,1100,1,0,-1
0,1344,5160,-1,0,-1
0,1345,570,-1,0,-1
0,1346,1740,1,0,-1
0,1347,10260,1,0,-1
0,1348,3090,-1,0,-1
0,1349,22250,1,0,-1
0,1350,3480,-1,0,-1
0,1351,12360,-1,0,-1
0,1352,4990,-1,0,-1
0,1353,2020,1,0,-1
0,1354,5020,1,0,-1
0,1355,1480,-1,0,-1
0,1356,3070,1,0,-1
0,1357,2040,1,0,-1
0,1358,2230,-1,0,-1
0,1359,4790,-1,0,-1
0,1360,2040,-1,0,-1
0,1361,3350,1,0,-1
0,1362,3480,1,0,-1
0,1363,2110,-1,0,-1
0,1364,7690,1,0,-1
0,1365,1750,1,0,-1
0,1366,3520,-1,0,-1
0,1367,8540,-1,0,-1
0,1368,660,-1,0,-1
0,1369,5300,-1,0,-1
0,1370,2190,-1,0,-1
0,1371,2570,1,0,-1
0,1372,4790,1,0,-1
0,1373,8170,1,0,-1
0,1374,520,-1,0,-1
0,1375,1870,-1,0,-1
0,1376,2180,-1,0,-1
0,1377,1810,-1,0,-1
0,1378,4840,-1,0,-1
0,1379,1290,1,0,-1
0,1380,570,1,0,-1
0,1381,440,1,0,-1
0,1382,5170,-1,0,-1
0,1383,2360,1,0,-1
0,1384,2520,1,0,-1
0,1385,710,-1,0,-1
0,1386,7910,1,0,-1
0,1387,5040,-1,0,-1
0,1388,760,-1,0,-1
0,1389,2750,1,0,-1
0,1390,2160,1,0,-1
0,1391,8110,-1,0,-1
0,1392,1810,1,0,-1
0,1393,1530,-1,0,-1
0,1394,3530,1,0,-1
0,1395,5940,-1,0,-1
0,1396,830,1,0,-1
0,1397,2050,-1,0,-1
0,1398,6230,-1,0,-1
0,1399,2150,-1,0,-1
0,1400,9440,-1,0,-1
0,1401,2790,-1,0,-1
0,1402,10130,1,0,-1
0,1403,700,-1,0,-1
0,1404,2610,-1,0,-1
0,1405,2310,-1,0,-1
0,1406,1250,-1,0,-1
0,1407,550,1,0,-1
0,1408,4200,-1,0,-1
0,1409,920,1,0,-1
0,1410,1010,-1,0,-1
0,1411,4270,1,0,-1
0,1412,2640,1,0,-1
0,1413,4720,1,0,-1
0,1414,13120,-1,0,-1
0,1415,5400,-1,0,-1
0,1416,3070,-1,0,-1
0,1417,4870,-1,0,-1
0,1418,1040,-1,0,-1
0,1419,9160,-1,0,-1
0,1420,5020,1,0,-1
0,1421,2500,-1,0,-1
0,1422,3330,-1,0,-1
0,1423,1890,-1,0,-1
0,1424,2420,-1,0,-1
0,1425,1380,-1,0,-1
0,1426,1830,-1,0,-1
0,1427,10330,-1,0,-1
0,1428,6180,-1,0,-1
0,1429,2450,-1,0,-1
0,1430,7050,-1,0,-1
0,1431,7880,1,0,-1
0,1432,13530,-1,0,-1
0,1433,7790,1,0,-1
0,1434,2760,-1,0,-1
0,1435,6380,-1,0,-1
0,1436,3920,-1,0,-1
0,1437,2950,1,0,-1
0,1438,5250,-1,0,-1
0,1439,1970,-1,0,-1
0,1440,2910,-1,0,-1
0,1441,2350,1,0,-1
0,1442,10560,1,0,-1
0,1443,5710,1,0,-1
0,1444,1060,1,0,-1
0,1445,1060,-1,0,-1
0,1446,2970,-1,0,-1
0,1447,2720,-1,0,-1
0,1448,1410,1,0,-1
0,1449,3780,1,0,-1
0,1450,3640,-1,0,-1
0,1451,2880,-1,0,-1
0,1452,4630,-1,0,-1
0,1453,2290,-1,0,-1
0,1454,3880,-1,0,-1
0,1455,1810,-1,0,-1
0,1456,1720,1,0,-1
0,1457,8870,1,0,-1
0,1458,1280,-1,0,-1
0,1459,4440,1,0,-1
0,1460,2780,-1,0,-1
0,1461,1510,-1,0,-1
0,1462,7800,-1,0,-1
0,1463,5110,1,0,-1
0,1464,8950,-1,0,-1
0,1465,6980,-1,0,-1
0,1466,7480,1,0,-1
0,1467,7570,-1,0,-1
0,1468,6890,-1,0,-1
0,1469,4050,-1,0,-1
0,1470,6990,1,0,-1
0,1471,2890,-1,0,-1
0,1472,4530,-1,0,-1
0,1473,3540,-1,0,-1
0,1474,2020,-1,0,-1
0,1475,1380,-1,0,-1
0,1476,9440,1,0,-1
0,1477,10770,1,0,-1
0,1478,1250,-1,0,-1
0,1479,2050,-1,0,-1
0,1480,2550,-1,0,-1
0,1481,920,-1,0,-1
0,1482,5470,-1,0,-1
0,1483,3720,-1,0,-1
0,1484,4140,-1,0,-1
0,1485,2330,-1,0,-1
0,1486,1230,-1,0,-1
0,1487,3750,1,0,-1
0,1488,2120,-1,0,-1
0,1489,2860,-1,0,-1
0,1490,1420,1,0,-1
0,1491,4950,1,0,-1
0,1492,11880,-1,0,-1
0,1493,1420,-1,0,-1
0,1494,2700,1,0,-1
0,1495,11980,-1,0,-1
0,1496,4030,-1,0,-1
0,1497,6930,1,0,-1
0,1498,9250,-1,0,-1
0,1499,3610,-1,0,-1
0,1500,2320,-1,0,-1
0,1501,5790,-1,0,-1
0,1502,6080,1,0,-1
0,1503,3770,-1,0,-1
0,1504,5630,1,0,-1
0,1505,1850,1,0,-1
0,1506,870,-1,0,-1
0,1507,2250,1,0,-1
0,1508,5690,1,0,-1
0,1509,1450,-1,0,-1
0,1510,1210,-1,0,-1
0,1511,5260,-1,0,-1
0,1512,1050,-1,0,-1
0,1513,7160,-1,0,-1
0,1514,2290,-1,0,-1
0,1515,15810,1,0,-1
0,1516,2890,1,0,-1
0,1517,8680,1,0,-1
0,1518,5130,1,0,-1
0,1519,6030,-1,0,-1
0,1520,2550,-1,0,-1
0,1521,1740,1,0,-1
0,1522,1220,-1,0,-1
0,1523,5370,-1,0,-1
0,1524,2700,-1,0,-1
0,1525,1950,-1,0,-1
0,1526,6410,1,0,-1
0,1527,2950,-1,0,-1
0,1528,1140,-1,0,-1
0,1529,3250,-1,0,-1
0,1530,4750,-1,0,-1
0,1531,1380,-1,0,-1
0,1532,1490,1,0,-1
0,1533,3890,-1,0,-1
0,1534,5640,-1,0,-1
0,1535,2530,-1,0,-1
0,1536,6860,-1,0,-1
0,1537,1240,1,0,-1
0,1538,7160,1,0,-1
0,1539,2000,-1,0,-1
0,1540,3290,-1,0,-1
0,1541,7250,-1,0,-1
0,1542,5830,-1,0,-1
0,1543,8580,-1,0,-1
0,1544,1120,-1,0,-1
0,1545,1670,-1,0,-1
0,1546,3620,-1,0,-1
0,1547,1250,1,0,-1
0,1548,6480,-1,0,-1
0,1549,2810,-1,0,-1
0,1550,9970,1,0,-1
0,1551,7850,-1,0,-1
0,1552,3160,-1,0,-1
0,1553,4740,-1,0,-1
0,1554,1490,-1,0,-1
0,1555,2960,-1,0,-1
0,1556,3090,-1,0,-1
0,1557,2810,-1,0,-1
0,1558,3060,1,0,-1
0,1559,1810,-1,0,-1
0,1560,1430,-1,0,-1
0,1561,1790,-1,0,-1
0,1562,6310,1,0,-1
0,1563,2360,-1,0,-1
0,1564,7570,-1,0,-1
0,1565,3910,-1,0,-1
0,1566,15070,-1,0,-1
0,1567,940,-1,0,-1
0,1568,1420,-1,0,-1
0,1569,2580,1,0,-1
0,1570,2240,-1,0,-1
0,1571,1640,-1,0,-1
0,1572,2450,-1,0,-1
0,1573,7690,-1,0,-1
0,1574,7520,-1,0,-1
0,1575,740,-1,0,-1
0,1576,10540,-1,0,-1
0,1577,3020,-1,0,-1
0,1578,6490,-1,0,-1
0,1579,3880,-1,0,-1
0,1580,1070,-1,0,-1
0,1581,3930,1,0,-1
0,1582,2130,-1,0,-1
0,1583,2350,-1,0,-1
0,1584,790,-1,0,-1
0,1585,4020,1,0,-1
0,1586,2920,-1,0,-1
0,1587,3760,-1,0,-1
0,1588,1220,1,0,-1
0,1589,5030,-1,0,-1
0,1590,4060,-1,0,-1
0,1591,7930,-1,0,-1
0,1592,1000,-1,0,-1
0,1593,2870,-1,0,-1
0,1594,1920,-1,0,-1
0,1595,840,-1,0,-1
0,1596,5160,1,0,-1
0,1597,8470,-1,0,-1
0,1598,2870,-1,0,-1
0,1599,4540,-1,0,-1
0,1600,14480,1,-1,-1
0,1601,14850,1,-1,-1
0,1602,4590,1,-1,-1
0,1603,2650,1,-1,-1
0,1604,1580,1,-1,-1
0,1605,2520,1,-1,-1
0,1606,3310,-1,-1,-1
0,1607,1430,1,-1,-1
0,1608,2170,1,-1,-1
0,1609,590,-1,-1,-1
0,1610,3000,1,-1,-1
0,1611,6440,1,-1,-1
0,1612,4240,1,-1,-1
0,1613,6830,1,-1,-1
0,1614,13020,1,-1,-1
0,1615,3580,-1,-1,-1
0,1616,1000,1,-1,-1
0,1617,1530,1,-1,-1
0,1618,2680,-1,-1,-1
0,1619,4220,-1,-1,-1
0,1620,3520,1,-1,-1
0,1621,2490,-1,-1,-1
0,1622,410,1,-1,-1
0,1623,1760,1,-1,-1
0,1624,1620,-1,-1,-1
0,1625,3710,1,-1,-1
0,1626,1950,1,-1,-1
0,1627,5640,1,-1,-1
0,1628,4710,1,-1,-1
0,1629,6250,-1,-1,-1
0,1630,5250,1,-1,-1
0,1631,1190,1,-1,-1
0,1632,2520,1,-1,-1
0,1633,1030,1,-1,-1
0,1634,1370,1,-1,-1
0,1635,9230,1,-1,-1
0,1636,2290,-1,-1,-1
0,1637,2000,1,-1,-1
0,1638,7530,1,-1,-1
0,1639,1410,1,-1,-1
0,1640,2380,-1,-1,-1
0,1641,4340,-1,-1,-1
0,1642,3640,1,-1,-1
0,1643,1130,1,-1,-1
0,1644,5050,1,-1,-1
0,1645,7630,1,-1,-1
0,1646,10000,1,-1,-1
0,1647,1580,1,-1,-1
0,1648,2020,1,-1,-1
0,1649,1470,1,-1,-1
0,1650,5310,1,-1,-1
0,1651,7230,1,-1,-1
0,1652,3230,1,-1,-1
0,1653,9950,1,-1,-1
0,1654,1400,1,-1,-1
0,1655,2640,1,-1,-1
0,1656,2060,1,-1,-1
0,1657,3440,-1,-1,-1
0,1658,14940,1,-1,-1
0,1659,2930,1,-1,-1
0,1660,2500,1,-1,-1
0,1661,1500,-1,-1,-1
0,1662,2350,1,-1,-1
0,1663,1130,1,-1,-1
0,1664,370,1,-1,-1
0,1665,2420,1,-1,-1
0,1666,10600,-1,-1,-1
0,1667,7720,1,-1,-1
0,1668,600,-1,-1,-1
0,1669,3020,1,-1,-1
0,1670,1680,1,-1,-1
0,1671,1660,-1,-1,-1
0,1672,7680,1,-1,-1
0,1673,2720,1,-1,-1
0,1674,3800,1,-1,-1
0,1675,1440,-1,-1,-1
0,1676,690,1,-1,-1
0,1677,5680,-1,-1,-1
0,1678,1330,1,-1,-1
0,1679,2940,-1,-1,-1
0,1680,4340,-1,-1,-1
0,1681,13860,1,-1,-1
0,1682,2020,-1,-1,-1
0,1683,1520,1,-1,-1
0,1684,1760,1,-1,-1
0,1685,2620,1,-1,-1
0,1686,2710,1,-1,-1
0,1687,1830,1,-1,-1
0,1688,3910,1,-1,-1
0,1689,7030,1,-1,-1
0,1690,2890,1,-1,-1
0,1691,1030,-1,-1,-1
0,1692,5860,1,-1,-1
0,1693,2150,1,-1,-1
0,1694,5450,1,-1,-1
0,1695,2120,1,-1,-1
0,1696,2480,1,-1,-1
0,1697,4150,-1,-1,-1
0,1698,3650,1,-1,-1
0,1699,450,1,-1,-1
0,1700,2950,1,-1,-1
0,1701,11210,1,-1,-1
0,1702,720,1,-1,-1
0,1703,12840,-1,-1,-1
0,1704,3740,1,-1,-1
0,1705,6040,-1,-1,-1
0,1706,1810,-1,-1,-1
0,1707,1570,1,-1,-1
0,1708,1800,1,-1,-1
0,1709,6170,-1,-1,-1
0,1710,7620,1,-1,-1
0,1711,4200,1,-1,-1
0,1712,4070,-1,-1,-1
0,1713,1780,1,-1,-1
0,1714,6750,1,-1,-1
0,1715,9420,1,-1,-1
0,1716,9410,-1,-1,-1
0,1717,2830,1,-1,-1
0,1718,4660,-1,-1,-1
0,1719,1390,1,-1,-1
0,1720,5790,-1,-1,-1
0,1721,9020,1,-1,-1
0,1722,1560,1,-1,-1
0,1723,6170,1,-1,-1
0,1724,2090,1,-1,-1
0,1725,12110,1,-1,-1
0,1726,660,-1,-1,-1
0,1727,5570,-1,-1,-1
0,1728,7630,1,-1,-1
0,1729,800,1,-1,-1
0,1730,1010,-1,-1,-1
0,1731,530,1,-1,-1
0,1732,1490,1,-1,-1
0,1733,1030,-1,-1,-1
0,1734,3750,1,-1,-1
0,1735,3170,1,-1,-1
0,1736,2260,1,-1,-1
0,1737,730,1,-1,-1
0,1738,5430,1,-1,-1
0,1739,1560,-1,-1,-1
0,1740,13190,-1,-1,-1
0,1741,2070,1,-1,-1
0,1742,3520,-1,-1,-1
0,1743,1160,1,-1,-1
0,1744,3110,1,-1,-1
0,1745,2230,1,-1,-1
0,1746,3910,-1,-1,-1
0,1747,4410,1,-1,-1
0,1748,21620,1,-1,-1
0,1749,4660,1,-1,-1
0,1750,5460,-1,-1,-1
0,1751,12820,-1,-1,-1
0,1752,3630,1,-1,-1
0,1753,4730,1,-1,-1
0,1754,2290,1,-1,-1
0,1755,1110,1,-1,-1
0,1756,4730,1,-1,-1
0,1757,8260,1,-1,-1
0,1758,2710,-1,-1,-1
0,1759,4680,1,-1,-1
0,1760,2110,1,-1,-1
0,1761,2540,-1,-1,-1
0,1762,2300,1,-1,-1
0,1763,3510,1,-1,-1
0,1764,1290,-1,-1,-1
0,1765,1080,1,-1,-1
0,1766,1350,1,-1,-1
0,1767,4660,1,-1,-1
0,1768,4630,1,-1,-1
0,1769,9420,1,-1,-1
0,1770,4550,-1,-1,-1
0,1771,1390,1,-1,-1
0,1772,3950,1,-1,-1
0,1773,6580,-1,-1,-1
0,1774,11220,1,-1,-1
0,1775,1850,-1,-1,-1
0,1776,6650,1,-1,-1
0,1777,2360,-1,-1,-1
0,1778,2150,-1,-1,-1
0,1779,6410,1,-1,-1
0,1780,4040,1,-1,-1
0,1781,1210,-1,-1,-1
0,1782,2420,1,-1,-1
0,1783,6670,1,-1,-1
0,1784,5840,-1,-1,-1
0,1785,3010,1,-1,-1
0,1786,5630,-1,-1,-1
0,1787,1430,-1,-1,-1
0,1788,2240,1,-1,-1
0,1789,5210,1,-1,-1
0,1790,5110,1,-1,-1
0,1791,1260,1,-1,-1
0,1792,2610,-1,-1,-1
0,1793,6910,-1,-1,-1
0,1794,3920,1,-1,-1
0,1795,5960,1,-1,-1
0,1796,6660,1,-1,-1
0,1797,920,1,-1,-1
0,1798,1310,1,-1,-1
0,1799,3070,1,-1,-1
0,1800,1620,1,-1,-1
0,1801,5000,1,-1,-1
0,1802,5440,1,-1,-1
0,1803,2040,1,-1,-1
0,1804,3440,-1,-1,-1
0,1805,1890,1,-1,-1
0,1806,3850,1,-1,-1
0,1807,1440,-1,-1,-1
0,1808,3130,1,-1,-1
0,1809,3020,1,-1,-1
0,1810,5750,1,-1,-1
0,1811,1510,1,-1,-1
0,1812,5330,-1,-1,-1
0,1813,2400,1,-1,-1
0,1814,1150,-1,-1,-1
0,1815,9030,-1,-1,-1
0,1816,4420,-1,-1,-1
0,1817,8480,1,-1,-1
0,1818,800,1,-1,-1
0,1819,5510,-1,-1,-1
0,1820,1430,-1,-1,-1
0,1821,3110,-1,-1,-1
0,1822,2970,1,-1,-1
0,1823,850,1,-1,-1
0,1824,2430,1,-1,-1
0,1825,3360,1,-1,-1
0,1826,1800,-1,-1,-1
0,1827,2750,1,-1,-1
0,1828,3510,1,-1,-1
0,1829,1900,-1,-1,-1
0,1830,1790,1,-1,-1
0,1831,1840,1,-1,-1
0,1832,3290,1,-1,-1
0,1833,2150,1,-1,-1
0,1834,1600,1,-1,-1
0,1835,11480,1,-1,-1
0,1836,1800,-1,-1,-1
0,1837,4080,1,-1,-1
0,1838,5850,-1,-1,-1
0,1839,8920,-1,-1,-1
0,1840,4150,-1,-1,-1
0,1841,660,1,-1,-1
0,1842,1170,1,-1,-1
0,1843,13370,-1,-1,-1
0,1844,6430,1,-1,-1
0,1845,2830,-1,-1,-1
0,1846,1610,1,-1,-1
0,1847,28230,-1,-1,-1
0,1848,5830,1,-1,-1
0,1849,2190,1,-1,-1
0,1850,20260,1,-1,-1
0,1851,10610,1,-1,-1
0,1852,560,1,-1,-1
0,1853,6060,1,-1,-1
0,1854,680,-1,-1,-1
0,1855,1490,1,-1,-1
0,1856,4810,-1,-1,-1
0,1857,3210,1,-1,-1
0,1858,16460,-1,-1,-1
0,1859,1510,1,-1,-1
0,1860,2900,1,-1,-1
0,1861,3870,-1,-1,-1
0,1862,6920,1,-1,-1
0,1863,15780,-1,-1,-1
0,1864,13980,-1,-1,-1
0,1865,950,1,-1,-1
0,1866,2000,1,-1,-1
0,1867,1840,1,-1,-1
0,1868,4140,-1,-1,-1
0,1869,1640,1,-1,-1
0,1870,3000,1,-1,-1
0,1871,2580,-1,-1,-1
0,1872,1670,1,-1,-1
0,1873,5560,-1,-1,-1
0,1874,4800,1,-1,-1
0,1875,640,-1,-1,-1
0,1876,1520,1,-1,-1
0,1877,1390,-1,-1,-1
0,1878,13140,1,-1,-1
0,1879,1710,1,-1,-1
0,1880,3260,1,-1,-1
0,1881,1680,1,-1,-1
0,1882,680,-1,-1,-1
0,1883,1550,-1,-1,-1
0,1884,1180,1,-1,-1
0,1885,3690,-1,-1,-1
0,1886,1450,1,-1,-1
0,1887,3630,1,-1,-1
0,1888,3300,-1,-1,-1
0,1889,800,1,-1,-1
0,1890,4300,-1,-1,-1
0,1891,7890,-1,-1,-1
0,1892,2350,-1,-1,-1
0,1893,1050,1,-1,-1
0,1894,1760,1,-1,-1
0,1895,11860,1,-1,-1
0,1896,4150,1,-1,-1
0,1897,2880,1,-1,-1
0,1898,5160,-1,-1,-1
0,1899,1740,1,-1,-1
0,1900,3870,1,-1,-1
0,1901,2740,1,-1,-1
0,1902,540,1,-1,-1
0,1903,1930,1,-1,-1
0,1904,1640,-1,-1,-1
0,1905,810,-1,-1,-1
0,1906,6210,1,-1,-1
0,1907,1820,1,-1,-1
0,1908,4590,-1,-1,-1
0,1909,3360,-1,-1,-1
0,1910,2990,1,-1,-1
0,1911,6240,-1,-1,-1
0,1912,2050,1,-1,-1
0,1913,2730,1,-1,-1
0,1914,1310,1,-1,-1
0,1915,5080,-1,-1,-1
0,1916,9950,-1,-1,-1
0,1917,670,1,-1,-1
0,1918,4980,1,-1,-1
0,1919,1160,-1,-1,-1
0,1920,5140,1,-1,-1
0,1921,3960,1,-1,-1
0,1922,1880,-1,-1,-1
0,1923,16880,1,-1,-1
0,1924,4730,1,-1,-1
0,1925,7800,-1,-1,-1
0,1926,690,1,-1,-1
0,1927,2000,-1,-1,-1
0,1928,1800,1,-1,-1
0,1929,7160,-1,-1,-1
0,1930,4900,1,-1,-1
0,1931,1680,1,-1,-1
0,1932,1230,1,-1,-1
0,1933,4060,1,-1,-1
0,1934,3380,1,-1,-1
0,1935,2510,1,-1,-1
0,1936,2810,1,-1,-1
0,1937,2510,1,-1,-1
0,1938,2530,-1,-1,-1
0,1939,10360,1,-1,-1
0,1940,6510,1,-1,-1
0,1941,2040,-1,-1,-1
0,1942,2220,-1,-1,-1
0,1943,8510,-1,-1,-1
0,1944,13380,-1,-1,-1
0,1945,1870,1,-1,-1
0,1946,6520,-1,-1,-1
0,1947,3770,1,-1,-1
0,1948,2480,1,-1,-1
0,1949,3140,-1,-1,-1
0,1950,4530,1,-1,-1
0,1951,2920,1,-1,-1
0,1952,6560,-1,-1,-1
0,1953,4960,1,-1,-1
0,1954,2490,1,-1,-1
0,1955,750,1,-1,-1
0,1956,3880,-1,-1,-1
0,1957,4500,1,-1,-1
0,1958,5710,1,-1,-1
0,1959,1830,1,-1,-1
0,1960,990,1,-1,-1
0,1961,2080,1,-1,-1
0,1962,4200,1,-1,-1
0,1963,14720,1,-1,-1
0,1964,4510,-1,-1,-1
0,1965,1360,1,-1,-1
0,1966,7740,-1,-1,-1
0,1967,2160,-1,-1,-1
0,1968,1250,1,-1,-1
0,1969,930,-1,-1,-1
0,1970,4680,1,-1,-1
0,1971,4270,1,-1,-1
0,1972,850,1,-1,-1
0,1973,2400,1,-1,-1
0,1974,1310,-1,-1,-1
0,1975,1660,1,-1,-1
0,1976,2460,-1,-1,-1
0,1977,2200,1,-1,-1
0,1978,2140,1,-1,-1
0,1979,2540,1,-1,-1
0,1980,2530,-1,-1,-1
0,1981,3080,1,-1,-1
0,1982,1500,1,-1,-1
0,1983,6390,1,-1,-1
0,1984,6200,1,-1,-1
0,1985,2330,-1,-1,-1
0,1986,11580,1,-1,-1
0,1987,1900,-1,-1,-1
0,1988,3890,1,-1,-1
0,1989,9710,1,-1,-1
0,1990,1380,-1,-1,-1
0,1991,1040,1,-1,-1
0,1992,6090,-1,-1,-1
0,1993,3400,1,-1,-1
0,1994,1100,-1,-1,-1
0,1995,1760,-1,-1,-1
0,1996,3330,1,-1,-1
0,1997,2530,-1,-1,-1
0,1998,530,-1,-1,-1
0,1999,1240,-1,-1,-1
0,2000,2340,1,1,1
0,2001,2020,1,1,1
0,2002,3040,-1,1,1
0,2003,4240,-1,1,1
0,2004,4830,1,1,1
0,2005,2640,1,1,1
0,2006,690,1,1,1
0,2007,2300,-1,1,1
0,2008,9810,-1,1,1
0,2009,2630,1,1,1
0,2010,6650,1,1,1
0,2011,3220,1,1,1
0,2012,1610,1,1,1
0,2013,5510,-1,1,1
0,2014,2700,1,1,1
0,2015,1630,1,1,1
0,2016,3000,-1,1,1
0,2017,3200,1,1,1
0,2018,21910,-1,1,1
0,2019,1650,-1,1,1
0,2020,2080,-1,1,1
0,2021,3100,-1,1,1
0,2022,5640,-1,1,1
0,2023,1430,1,1,1
0,2024,2750,1,1,1
0,2025,1110,1,1,1
0,2026,7110,1,1,1
0,2027,520,-1,1,1
0,2028,5420,1,1,1
0,2029,4570,-1,1,1
0,2030,10180,1,1,1
0,2031,8300,-1,1,1
0,2032,6570,-1,1,1
0,2033,2660,-1,1,1
0,2034,2020,1,1,1
0,2035,3900,1,1,1
0,2036,4600,-1,1,1
0,2037,9140,1,1,1
0,2038,3730,1,1,1
0,2039,13530,-1,1,1
0,2040,4880,-1,1,1
0,2041,13370,-1,1,1
0,2042,1590,1,1,1
0,2043,1260,1,1,1
0,2044,9410,-1,1,1
0,2045,2980,-1,1,1
0,2046,12670,-1,1,1
0,2047,5430,-1,1,1
0,2048,2020,1,1,1
0,2049,7970,1,1,1
0,2050,1370,1,1,1
0,2051,1420,-1,1,1
0,2052,4610,1,1,1
0,2053,15840,1,1,1
0,2054,1950,1,1,1
0,2055,4120,-1,1,1
0,2056,2360,-1,1,1
0,2057,2800,-1,1,1
0,2058,7740,-1,1,1
0,2059,1810,1,1,1
0,2060,3210,-1,1,1
0,2061,4080,1,1,1
0,2062,4270,1,1,1
0,2063,5160,-1,1,1
0,2064,5480,1,1,1
0,2065,11660,-1,1,1
0,2066,3070,1,1,1
0,2067,3140,-1,1,1
0,2068,1680,1,1,1
0,2069,5450,1,1,1
0,2070,4880,1,1,1
0,2071,2560,-1,1,1
0,2072,7740,1,1,1
0,2073,3040,1,1,1
0,2074,11160,1,1,1
0,2075,1950,-1,1,1
0,2076,600,1,1,1
0,2077,2620,-1,1,1
0,2078,8380,1,1,1
0,2079,3910,1,1,1
0,2080,3560,-1,1,1
0,2081,2140,-1,1,1
0,2082,6660,-1,1,1
0,2083,3510,1,1,1
0,2084,1570,-1,1,1
0,2085,5900,-1,1,1
0,2086,6750,1,1,1
0,2087,1510,-1,1,1
0,2088,830,1,1,1
0,2089,1260,1,1,1
0,2090,14020,-1,1,1
0,2091,3760,1,1,1
0,2092,2640,1,1,1
0,2093,2950,1,1,1
0,2094,3520,-1,1,1
0,2095,880,1,1,1
0,2096,2870,1,1,1
0,2097,1510,-1,1,1
0,2098,2400,1,1,1
0,2099,1440,1,1,1
0,2100,7540,-1,1,1
0,2101,8120,1,1,1
0,2102,7980,1,1,1
0,2103,750,1,1,1
0,2104,1800,1,1,1
0,2105,2170,-1,1,1
0,2106,1220,-1,1,1
0,2107,5800,1,1,1
0,2108,2060,1,1,1
0,2109,9830,1,1,1
0,2110,4580,1,1,1
0,2111,1540,1,1,1
0,2112,3780,-1,1,1
0,2113,1340,1,1,1
0,2114,2040,1,1,1
0,2115,1260,-1,1,1
0,2116,1670,1,1,1
0,2117,4160,-1,1,1
0,2118,2430,1,1,1
0,2119,7510,-1,1,1
0,2120,4780,-1,1,1
0,2121,1910,-1,1,1
0,2122,4110,-1,1,1
0,2123,3940,-1,1,1
0,2124,7280,-1,1,1
0,2125,2340,-1,1,1
0,2126,5830,1,1,1
0,2127,910,-1,1,1
0,2128,1120,1,1,1
0,2129,2000,1,1,1
0,2130,2970,-1,1,1
0,2131,6270,1,1,1
0,2132,3430,-1,1,1
0,2133,4480,-1,1,1
0,2134,4710,1,1,1
0,2135,1520,-1,1,1
0,2136,2020,1,1,1
0,2137,6710,1,1,1
0,2138,2450,1,1,1
0,2139,2610,1,1,1
0,2140,2920,-1,1,1
0,2141,13910,1,1,1
0,2142,5820,-1,1,1
0,2143,1370,1,1,1
0,2144,6510,-1,1,1
0,2145,4140,1,1,1
0,2146,740,-1,1,1
0,2147,4260,-1,1,1
0,2148,760,-1,1,1
0,2149,2010,-1,1,1
0,2150,3870,-1,1,1
0,2151,3890,-1,1,1
0,2152,920,1,1,1
0,2153,510,1,1,1
0,2154,8200,1,1,1
0,2155,6240,1,1,1
0,2156,1560,-1,1,1
0,2157,4810,1,1,1
0,2158,3070,-1,1,1
0,2159,2000,-1,1,1
0,2160,4380,1,1,1
0,2161,1560,1,1,1
0,2162,10220,1,1,1
0,2163,3960,-1,1,1
0,2164,1780,1,1,1
0,2165,6060,1,1,1
0,2166,3380,1,1,1
0,2167,7110,1,1,1
0,2168,1150,1,1,1
0,2169,3060,1,1,1
0,2170,1630,1,1,1
0,2171,5610,-1,1,1
0,2172,8810,-1,1,1
0,2173,3250,-1,1,1
0,2174,510,1,1,1
0,2175,12810,-1,1,1
0,2176,15800,1,1,1
0,2177,5190,1,1,1
0,2178,5250,1,1,1
0,2179,1640,1,1,1
0,2180,7170,1,1,1
0,2181,1360,-1,1,1
0,2182,3740,-1,1,1
0,2183,1890,1,1,1
0,2184,8780,1,1,1
0,2185,1770,-1,1,1
0,2186,9410,1,1,1
0,2187,4320,1,1,1
0,2188,5900,-1,1,1
0,2189,2940,1,1,1
0,2190,9610,1,1,1
0,2191,3300,1,1,1
0,2192,730,-1,1,1
0,2193,5650,-1,1,1
0,2194,3960,1,1,1
0,2195,2480,1,1,1
0,2196,7350,-1,1,1
0,2197,11420,1,1,1
0,2198,3830,1,1,1
0,2199,4260,-1,1,1
0,2200,1680,-1,1,1
0,2201,1890,1,1,1
0,2202,4990,1,1,1
0,2203,6030,1,1,1
0,2204,3770,-1,1,1
0,2205,11340,1,1,1
0,2206,3640,1,1,1
0,2207,3300,-1,1,1
0,2208,8120,-1,1,1
0,2209,4850,1,1,1
0,2210,950,1,1,1
0,2211,2640,1,1,1
0,2212,3390,-1,1,1
0,2213,5740,-1,1,1
0,2214,1380,-1,1,1
0,2215,1380,-1,1,1
0,2216,1320,1,1,1
0,2217,7650,-1,1,1
0,2218,3110,1,1,1
0,2219,3560,-1,1,1
0,2220,2590,-1,1,1
0,2221,2410,-1,1,1
0,2222,4240,1,1,1
0,2223,1050,1,1,1
0,2224,2860,-1,1,1
0,2225,2720,1,1,1
0,2226,6960,-1,1,1
0,2227,7610,1,1,1
0,2228,1340,1,1,1
0,2229,10140,1,1,1
0,2230,5260,-1,1,1
0,2231,810,1,1,1
0,2232,4420,1,1,1
0,2233,1260,-1,1,1
0,2234,9330,1,1,1
0,2235,4640,-1,1,1
0,2236,3400,1,1,1
0,2237,10160,-1,1,1
0,2238,2900,1,1,1
0,2239,3870,1,1,1
0,2240,6330,1,1,1
0,2241,1220,1,1,1
0,2242,1870,-1,1,1
0,2243,1370,1,1,1
0,2244,4240,-1,1,1
0,2245,8040,-1,1,1
0,2246,1810,1,1,1
0,2247,8440,1,1,1
0,2248,3770,-1,1,1
0,2249,10000,1,1,1
0,2250,3550,-1,1,1
0,2251,950,-1,1,1
0,2252,3260,1,1,1
0,2253,4330,1,1,1
0,2254,1050,1,1,1
0,2255,6200,1,1,1
0,2256,1750,1,1,1
0,2257,4930,1,1,1
0,2258,880,-1,1,1
0,2259,2420,-1,1,1
0,2260,6610,1,1,1
0,2261,5920,1,1,1
0,2262,2510,1,1,1
0,2263,4670,1,1,1
0,2264,950,1,1,1
0,2265,1380,-1,1,1
0,2266,1450,-1,1,1
0,2267,3910,1,1,1
0,2268,5170,1,1,1
0,2269,6760,-1,1,1
0,2270,4670,1,1,1
0,2271,560,1,1,1
0,2272,4420,1,1,1
0,2273,3220,1,1,1
0,2274,3370,1,1,1
0,2275,7660,-1,1,1
0,2276,840,-1,1,1
0,2277,2040,1,1,1
0,2278,1260,-1,1,1
0,2279,16160,1,1,1
0,2280,1050,-1,1,1
0,2281,3250,-1,1,1
0,2282,1140,-1,1,1
0,2283,5400,-1,1,1
0,2284,3470,1,1,1
0,2285,3320,-1,1,1
0,2286,4280,1,1,1
0,2287,7710,1,1,1
0,2288,1490,1,1,1
0,2289,1710,1,1,1
0,2290,5960,1,1,1
0,2291,2480,-1,1,1
0,2292,3280,1,1,1
0,2293,630,1,1,1
0,2294,6010,1,1,1
0,2295,14560,-1,1,1
0,2296,2440,-1,1,1
0,2297,4210,1,1,1
0,2298,6120,-1,1,1
0,2299,7230,1,1,1
0,2300,1960,-1,1,1
0,2301,2640,1,1,1
0,2302,4250,1,1,1
0,2303,4660,-1,1,1
0,2304,3420,-1,1,1
0,2305,10650,1,1,1
0,2306,930,-1,1,1
0,2307,3690,1,1,1
0,2308,2310,-1,1,1
0,2309,2490,-1,1,1
0,2310,5790,-1,1,1
0,2311,11630,1,1,1
0,2312,6670,-1,1,1
0,2313,2000,1,1,1
0,2314,1390,1,1,1
0,2315,1670,1,1,1
0,2316,3930,-1,1,1
0,2317,6010,1,1,1
0,2318,1180,1,1,1
0,2319,2080,1,1,1
0,2320,5740,1,1,1
0,2321,2820,1,1,1
0,2322,1150,-1,1,1
0,2323,1010,-1,1,1
0,2324,3560,-1,1,1
0,2325,1600,-1,1,1
0,2326,2850,-1,1,1
0,2327,4280,1,1,1
0,2328,2260,-1,1,1
0,2329,1610,1,1,1
0,2330,9380,1,1,1
0,2331,4140,1,1,1
0,2332,12080,-1,1,1
0,2333,980,-1,1,1
0,2334,6450,-1,1,1
0,2335,7750,1,1,1
0,2336,3990,1,1,1
0,2337,12470,1,1,1
0,2338,10450,1,1,1
0,2339,6950,-1,1,1
0,2340,4420,1,1,1
0,2341,3380,1,1,1
0,2342,3920,1,1,1
0,2343,8780,1,1,1
0,2344,2110,1,1,1
0,2345,4720,1,1,1
0,2346,4740,-1,1,1
0,2347,1550,-1,1,1
0,2348,3930,-1,1,1
0,2349,2160,1,1,1
0,2350,10670,1,1,1
0,2351,3210,1,1,1
0,2352,5370,1,1,1
0,2353,2720,1,1,1
0,2354,3910,-1,1,1
0,2355,2730,1,1,1
0,2356,2300,-1,1,1
0,2357,2380,1,1,1
0,2358,2600,-1,1,1
0,2359,9630,1,1,1
0,2360,3790,1,1,1
0,2361,4250,-1,1,1
0,2362,480,-1,1,1
0,2363,6190,1,1,1
0,2364,3700,1,1,1
0,2365,4520,-1,1,1
0,2366,5920,1,1,1
0,2367,1970,1,1,1
0,2368,3870,1,1,1
0,2369,3590,1,1,1
0,2370,2380,1,1,1
0,2371,8970,1,1,1
0,2372,2620,1,1,1
0,2373,2600,1,1,1
0,2374,630,-1,1,1
0,2375,3100,-1,1,1
0,2376,3130,1,1,1
0,2377,2160,-1,1,1
0,2378,8780,-1,1,1
0,2379,6630,-1,1,1
0,2380,2180,1,1,1
0,2381,2690,-1,1,1
0,2382,7000,1,1,1
0,2383,3700,-1,1,1
0,2384,1530,1,1,1
0,2385,5770,1,1,1
0,2386,2810,-1,1,1
0,2387,1210,-1,1,1
0,2388,1240,-1,1,1
0,2389,6170,-1,1,1
0,2390,4380,1,1,1
0,2391,11160,1,1,1
0,2392,1910,-1,1,1
0,2393,2960,-1,1,1
0,2394,1130,1,1,1
0,2395,1600,1,1,1
0,2396,1350,-1,1,1
0,2397,2370,-1,1,1
0,2398,2870,-1,1,1
0,2399,8580,-1,1,1
0,2400,2290,-1,0,0
0,2401,7630,1,0,0
0,2402,8800,-1,0,0
0,2403,8560,-1,0,0
0,2404,1620,1,0,0
0,2405,2990,1,0,0
0,2406,3760,-1,0,0
0,2407,4570,1,0,0
0,2408,4600,1,0,0
0,2409,4020,-1,0,0
0,2410,4680,-1,0,0
0,2411,2020,1,0,0
0,2412,3290,-1,0,0
0,2413,4110,-1,0,0
0,2414,2430,-1,0,0
0,2415,3710,-1,0,0
0,2416,4520,1,0,0
0,2417,850,1,0,0
0,2418,1300,-1,0,0
0,2419,8710,1,0,0
0,2420,1260,1,0,0
0,2421,1710,-1,0,0
0,2422,5000,-1,0,0
0,2423,6090,1,0,0
0,2424,2230,-1,0,0
0,2425,3050,-1,0,0
0,2426,12140,1,0,0
0,2427,3490,1,0,0
0,2428,3730,1,0,0
0,2429,2520,-1,0,0
0,2430,5200,1,0,0
0,2431,6210,-1,0,0
0,2432,760,1,0,0
0,2433,3140,1,0,0
0,2434,3990,1,0,0
0,2435,3780,-1,0,0
0,2436,7250,-1,0,0
0,2437,550,-1,0,0
0,2438,2750,-1,0,0
0,2439,950,-1,0,0
0,2440,10310,1,0,0
0,2441,930,1,0,0
0,2442,3210,1,0,0
0,2443,960,1,0,0
0,2444,4140,1,0,0
0,2445,9880,1,0,0
0,2446,4260,-1,0,0
0,2447,3860,1,0,0
0,2448,5000,1,0,0
0,2449,3020,1,0,0
0,2450,1870,1,0,0
0,2451,4080,-1,0,0
0,2452,1610,-1,0,0
0,2453,6050,1,0,0
0,2454,4390,-1,0,0
0,2455,4100,-1,0,0
0,2456,1900,-1,0,0
0,2457,1530,1,0,0
0,2458,910,1,0,0
0,2459,3780,1,0,0
0,2460,1870,1,0,0
0,2461,3770,-1,0,0
0,2462,800,1,0,0
0,2463,9270,1,0,0
0,2464,8690,1,0,0
0,2465,1640,1,0,0
0,2466,6230,-1,0,0
0,2467,5930,-1,0,0
0,2468,5380,-1,0,0
0,2469,3170,-1,0,0
0,2470,6770,1,0,0
0,2471,11390,1,0,0
0,2472,1440,1,0,0
0,2473,5490,1,0,0
0,2474,3910,-1,0,0
0,2475,5400,-1,0,0
0,2476,1330,1,0,0
0,2477,1720,1,0,0
0,2478,24600,-1,0,0
0,2479,2380,1,0,0
0,2480,2120,-1,0,0
0,2481,1680,-1,0,0
0,2482,3560,1,0,0
0,2483,2210,1,0,0
0,2484,8680,1,0,0
0,2485,2420,1,0,0
0,2486,12320,-1,0,0
0,2487,2310,1,0,0
0,2488,1840,-1,0,0
0,2489,1510,1,0,0
0,2490,2620,-1,0,0
0,2491,2590,1,0,0
0,2492,6560,1,0,0
0,2493,2170,-1,0,0
0,2494,3880,-1,0,0
0,2495,540,1,0,0
0,2496,2420,1,0,0
0,2497,2610,-1,0,0
0,2498,7780,1,0,0
0,2499,1760,-1,0,0
0,2500,6340,1,0,0
0,2501,1910,1,0,0
0,2502,2700,-1,0,0
0,2503,2090,1,0,0
0,2504,1150,1,0,0
0,2505,16570,-1,0,0
0,2506,1890,-1,0,0
0,2507,2640,1,0,0
0,2508,3700,-1,0,0
0,2509,4880,1,0,0
0,2510,1870,-1,0,0
0,2511,4930,-1,0,0
0,2512,6220,1,0,0
0,2513,7050,1,0,0
0,2514,3600,1,0,0
0,2515,5930,1,0,0
0,2516,2370,1,0,0
0,2517,1890,1,0,0
0,2518,950,-1,0,0
0,2519,2540,1,0,0
0,2520,8300,-1,0,0
0,2521,4520,1,0,0
0,2522,3300,-1,0,0
0,2523,1570,-1,0,0
0,2524,1710,1,0,0
0,2525,1420,-1,0,0
0,2526,3850,-1,0,0
0,2527,2600,1,0,0
0,2528,1550,1,0,0
0,2529,2520,-1,0,0
0,2530,15360,1,0,0
0,2531,970,-1,0,0
0,2532,1580,-1,0,0
0,2533,7370,-1,0,0
0,2534,3890,-1,0,0
0,2535,3640,1,0,0
0,2536,2230,-1,0,0
0,2537,1430,-1,0,0
0,2538,2960,1,0,0
0,2539,2960,-1,0,0
0,2540,2720,1,0,0
0,2541,13500,1,0,0
0,2542,940,-1,0,0
0,2543,3590,-1,0,0
0,2544,19080,1,0,0
0,2545,2540,1,0,0
0,2546,7250,-1,0,0
0,2547,1580,-1,0,0
0,2548,4020,-1,0,0
0,2549,820,1,0,0
0,2550,3620,1,0,0
0,2551,3090,1,0,0
0,2552,3880,1,0,0
0,2553,9460,1,0,0
0,2554,2630,1,0,0
0,2555,1130,1,0,0
0,2556,7100,1,0,0
0,2557,2990,-1,0,0
0,2558,12470,1,0,0
0,2559,5170,1,0,0
0,2560,1860,-1,0,0
0,2561,2430,1,0,0
0,2562,3150,-1,0,0
0,2563,7050,1,0,0
0,2564,1780,1,0,0
0,2565,2330,1,0,0
0,2566,4250,-1,0,0
0,2567,4800,1,0,0
0,2568,1490,1,0,0
0,2569,1840,1,0,0
0,2570,3340,-1,0,0
0,2571,4200,1,0,0
0,2572,3170,1,0,0
0,2573,12650,1,0,0
0,2574,3250,1,0,0
0,2575,4330,-1,0,0
0,2576,870,1,0,0
0,2577,4700,-1,0,0
0,2578,4260,-1,0,0
0,2579,3020,1,0,0
0,2580,1800,1,0,0
0,2581,3550,-1,0,0
0,2582,1270,1,0,0
0,2583,3190,1,0,0
0,2584,1510,1,0,0
0,2585,630,1,0,0
0,2586,4110,-1,0,0
0,2587,520,1,0,0
0,2588,4140,-1,0,0
0,2589,980,1,0,0
0,2590,12600,1,0,0
0,2591,740,-1,0,0
0,2592,3200,-1,0,0
0,2593,9640,1,0,0
0,2594,2350,-1,0,0
0,2595,5330,1,0,0
0,2596,2490,1,0,0
0,2597,4860,-1,0,0
0,2598,2710,1,0,0
0,2599,1950,1,0,0
0,2600,8690,-1,0,0
0,2601,8020,1,0,0
0,2602,1170,-1,0,0
0,2603,7490,1,0,0
0,2604,4740,-1,0,0
0,2605,1370,1,0,0
0,2606,7150,-1,0,0
0,2607,6080,-1,0,0
0,2608,830,-1,0,0
0,2609,1170,-1,0,0
0,2610,1230,1,0,0
0,2611,2220,1,0,0
0,2612,1880,-1,0,0
0,2613,4860,1,0,0
0,2614,1250,1,0,0
0,2615,2560,1,0,0
0,2616,5730,1,0,0
0,2617,1460,1,0,0
0,2618,4310,-1,0,0
0,2619,11670,1,0,0
0,2620,1130,1,0,0
0,2621,9570,1,0,0
0,2622,8520,-1,0,0
0,2623,13660,-1,0,0
0,2624,3800,1,0,0
0,2625,1370,1,0,0
0,2626,3120,1,0,0
0,2627,4210,-1,0,0
0,2628,4850,1,0,0
0,2629,1790,1,0,0
0,2630,1320,1,0,0
0,2631,2410,1,0,0
0,2632,2140,1,0,0
0,2633,1430,1,0,0
0,2634,1220,-1,0,0
0,2635,4330,1,0,0
0,2636,16600,-1,0,0
0,2637,8580,-1,0,0
0,2638,13710,1,0,0
0,2639,4400,-1,0,0
0,2640,1650,-1,0,0
0,2641,4900,-1,0,0
0,2642,350,-1,0,0
0,2643,14520,-1,0,0
0,2644,9710,-1,0,0
0,2645,610,-1,0,0
0,2646,14420,-1,0,0
0,2647,13310,-1,0,0
0,2648,4840,-1,0,0
0,2649,4100,-1,0,0
0,2650,1790,-1,0,0
0,2651,1490,1,0,0
0,2652,3930,-1,0,0
0,2653,1670,1,0,0
0,2654,4270,-1,0,0
0,2655,2230,-1,0,0
0,2656,1520,-1,0,0
0,2657,1600,1,0,0
0,2658,13740,1,0,0
0,2659,1570,-1,0,0
0,2660,3860,1,0,0
0,2661,8050,-1,0,0
0,2662,5430,1,0,0
0,2663,3820,1,0,0
0,2664,6530,-1,0,0
0,2665,1030,-1,0,0
0,2666,3890,-1,0,0
0,2667,7230,1,0,0
0,2668,9490,-1,0,0
0,2669,760,-1,0,0
0,2670,2070,-1,0,0
0,2671,3190,1,0,0
0,2672,1360,-1,0,0
0,2673,3450,-1,0,0
0,2674,1470,1,0,0
0,2675,740,1,0,0
0,2676,910,-1,0,0
0,2677,10830,-1,0,0
0,2678,2640,1,0,0
0,2679,970,-1,0,0
0,2680,8080,1,0,0
0,2681,2750,1,0,0
0,2682,4570,1,0,0
0,2683,4670,1,0,0
0,2684,1640,1,0,0
0,2685,1430,1,0,0
0,2686,6390,1,0,0
0,2687,630,-1,0,0
0,2688,2180,-1,0,0
0,2689,550,-1,0,0
0,2690,2450,-1,0,0
0,2691,3930,1,0,0
0,2692,1450,1,0,0
0,2693,10940,-1,0,0
0,2694,8970,-1,0,0
0,2695,2570,-1,0,0
0,2696,3280,-1,0,0
0,2697,1420,-1,0,0
0,2698,3760,-1,0,0
0,2699,2430,-1,0,0
0,2700,4090,1,0,0
0,2701,4070,1,0,0
0,2702,2940,-1,0,0
0,2703,4800,-1,0,0
0,2704,3130,-1,0,0
0,2705,3560,1,0,0
0,2706,4930,1,0,0
0,2707,1310,-1,0,0
0,2708,6090,1,0,0
0,2709,700,1,0,0
0,2710,1600,-1,0,0
0,2711,1350,1,0,0
0,2712,6950,1,0,0
0,2713,2480,1,0,0
0,2714,13660,1,0,0
0,2715,820,-1,0,0
0,2716,10000,-1,0,0
0,2717,1230,1,0,0
0,2718,9350,-1,0,0
0,2719,2320,-1,0,0
0,2720,2640,1,0,0
0,2721,7410,-1,0,0
0,2722,870,-1,0,0
0,2723,1620,1,0,0
0,2724,1460,1,0,0
0,2725,5210,1,0,0
0,2726,580,-1,0,0
0,2727,530,1,0,0
0,2728,5590,-1,0,0
0,2729,5890,1,0,0
0,2730,590,1,0,0
0,2731,6850,1,0,0
0,2732,3280,-1,0,0
0,2733,3990,-1,0,0
0,2734,1460,-1,0,0
0,2735,6480,1,0,0
0,2736,1380,1,0,0
0,2737,1790,1,0,0
0,2738,1450,1,0,0
0,2739,5330,1,0,0
0,2740,7540,1,0,0
0,2741,12860,-1,0,0
0,2742,12590,-1,0,0
0,2743,5370,1,0,0
0,2744,11130,1,0,0
0,2745,5440,1,0,0
0,2746,1760,-1,0,0
0,2747,1240,1,0,0
0,2748,1610,1,0,0
0,2749,4030,1,0,0
0,2750,5360,-1,0,0
0,2751,6970,1,0,0
0,2752,3450,1,0,0
0,2753,1670,-1,0,0
0,2754,9540,1,0,0
0,2755,6670,-1,0,0
0,2756,510,-1,0,0
0,2757,630,-1,0,0
0,2758,3000,1,0,0
0,2759,1980,1,0,0
0,2760,2070,1,0,0
0,2761,10360,1,0,0
0,2762,1020,-1,0,0
0,2763,2890,1,0,0
0,2764,6010,-1,0,0
0,2765,1140,1,0,0
0,2766,690,-1,0,0
0,2767,8880,1,0,0
0,2768,2390,-1,0,0
0,2769,1000,1,0,0
0,2770,2010,-1,0,0
0,2771,3730,1,0,0
0,2772,6650,1,0,0
0,2773,960,1,0,0
0,2774,1970,1,0,0
0,2775,1500,1,0,0
0,2776,5070,1,0,0
0,2777,8410,1,0,0
0,2778,580,-1,0,0
0,2779,6110,1,0,0
0,2780,7510,1,0,0
0,2781,6480,1,0,0
0,2782,730,-1,0,0
0,2783,6700,1,0,0
0,2784,930,1,0,0
0,2785,440,1,0,0
0,2786,1380,1,0,0
0,2787,3050,-1,0,0
0,2788,1920,1,0,0
0,2789,1750,-1,0,0
0,2790,8120,-1,0,0
0,2791,14710,1,0,0
0,2792,980,1,0,0
0,2793,1400,-1,0,0
0,2794,2070,-1,0,0
0,2795,2430,-1,0,0
0,2796,3270,-1,0,0
0,2797,8940,1,0,0
0,2798,4700,-1,0,0
0,2799,8530,-1,0,0
0,2800,6610,-1,1,0
0,2801,4340,-1,1,0
0,2802,1800,-1,1,0
0,2803,1960,-1,1,0
0,2804,3390,1,1,0
0,2805,7750,-1,1,0
0,2806,3350,1,1,0
0,2807,2090,-1,1,0
0,2808,5420,-1,1,0
0,2809,3600,1,1,0
0,2810,820,1,1,0
0,2811,4120,-1,1,0
0,2812,3690,-1,1,0
0,2813,1110,-1,1,0
0,2814,2150,-1,1,0
0,2815,1210,-1,1,0
0,2816,4970,-1,1,0
0,2817,2220,-1,1,0
0,2818,16000,-1,1,0
0,2819,2080,-1,1,0
0,2820,3350,-1,1,0
0,2821,2620,-1,1,0
0,2822,10190,-1,1,0
0,2823,700,-1,1,0
0,2824,2200,-1,1,0
0,2825,2300,1,1,0
0,2826,1140,-1,1,0
0,2827,5960,-1,1,0
0,2828,1670,1,1,0
0,2829,1920,-1,1,0
0,2830,2010,-1,1,0
0,2831,12460,-1,1,0
0,2832,1230,-1,1,0
0,2833,4250,-1,1,0
0,2834,710,1,1,0
0,2835,5400,-1,1,0
0,2836,4620,-1,1,0
0,2837,4730,-1,1,0
0,2838,4370,-1,1,0
0,2839,2360,-1,1,0
0,2840,3030,-1,1,0
0,2841,1720,-1,1,0
0,2842,4880,-1,1,0
0,2843,2460,-1,1,0
0,2844,8960,-1,1,0
0,2845,6680,-1,1,0
0,2846,3410,-1,1,0
0,2847,1800,-1,1,0
0,2848,910,-1,1,0
0,2849,2240,-1,1,0
0,2850,2390,-1,1,0
0,2851,710,-1,1,0
0,2852,1450,-1,1,0
0,2853,5000,-1,1,0
0,2854,6760,-1,1,0
0,2855,1620,-1,1,0
0,2856,2040,-1,1,0
0,2857,2520,1,1,0
0,2858,2580,-1,1,0
0,2859,840,-1,1,0
0,2860,640,1,1,0
0,2861,4650,-1,1,0
0,2862,13700,-1,1,0
0,2863,670,-1,1,0
0,2864,1190,1,1,0
0,2865,2570,-1,1,0
0,2866,1750,-1,1,0
0,2867,2590,1,1,0
0,2868,2540,-1,1,0
0,2869,1950,1,1,0
0,2870,6490,-1,1,0
0,2871,7840,-1,1,0
0,2872,900,-1,1,0
0,2873,4410,1,1,0
0,2874,1790,-1,1,0
0,2875,930,-1,1,0
0,2876,2830,-1,1,0
0,2877,6080,1,1,0
0,2878,4640,-1,1,0
0,2879,2030,1,1,0
0,2880,3100,-1,1,0
0,2881,10390,-1,1,0
0,2882,2370,-1,1,0
0,2883,3840,1,1,0
0,2884,610,1,1,0
0,2885,4000,-1,1,0
0,2886,2060,-1,1,0
0,2887,9900,-1,1,0
0,2888,990,-1,1,0
0,2889,3270,-1,1,0
0,2890,8140,-1,1,0
0,2891,1000,-1,1,0
0,2892,860,1,1,0
0,2893,5370,-1,1,0
0,2894,4200,-1,1,0
0,2895,4000,-1,1,0
0,2896,1360,-1,1,0
0,2897,8690,-1,1,0
0,2898,1830,-1,1,0
0,2899,4160,-1,1,0
0,2900,3970,-1,1,0
0,2901,5020,-1,1,0
0,2902,960,-1,1,0
0,2903,2960,-1,1,0
0,2904,3020,-1,1,0
0,2905,2890,-1,1,0
0,2906,2970,-1,1,0
0,2907,1090,-1,1,0
0,2908,1910,-1,1,0
0,2909,5410,-1,1,0
0,2910,3180,-1,1,0
0,2911,2290,-1,1,0
0,2912,2680,-1,1,0
0,2913,2000,-1,1,0
0,2914,2110,-1,1,0
0,2915,1960,-1,1,0
0,2916,9110,-1,1,0
0,2917,2090,-1,1,0
0,2918,1620,-1,1,0
0,2919,6330,-1,1,0
0,2920,4310,-1,1,0
0,2921,570,-1,1,0
0,2922,1630,-1,1,0
0,2923,5900,1,1,0
0,2924,1640,-1,1,0
0,2925,1040,-1,1,0
0,2926,5840,-1,1,0
0,2927,1010,-1,1,0
0,2928,5490,-1,1,0
0,2929,750,1,1,0
0,2930,2140,-1,1,0
0,2931,1470,-1,1,0
0,2932,4290,1,1,0
0,2933,1140,-1,1,0
0,2934,2950,-1,1,0
0,2935,1490,-1,1,0
0,2936,3860,-1,1,0
0,2937,4530,-1,1,0
0,2938,2580,-1,1,0
0,2939,890,-1,1,0
0,2940,3370,-1,1,0
0,2941,2720,-1,1,0
0,2942,1920,-1,1,0
0,2943,4490,-1,1,0
0,2944,2120,-1,1,0
0,2945,2760,-1,1,0
0,2946,9380,-1,1,0
0,2947,1240,-1,1,0
0,2948,800,-1,1,0
0,2949,7970,-1,1,0
0,2950,2870,-1,1,0
0,2951,6600,-1,1,0
0,2952,2640,-1,1,0
0,2953,1190,-1,1,0
0,2954,1200,-1,1,0
0,2955,8120,-1,1,0
0,2956,2730,-1,1,0
0,2957,10690,-1,1,0
0,2958,1510,-1,1,0
0,2959,750,-1,1,0
0,2960,4810,-1,1,0
0,2961,7540,1,1,0
0,2962,2410,1,1,0
0,2963,7850,-1,1,0
0,2964,5150,-1,1,0
0,2965,1710,-1,1,0
0,2966,3740,-1,1,0
0,2967,2170,-1,1,0
0,2968,1480,-1,1,0
0,2969,9340,-1,1,0
0,2970,5400,-1,1,0
0,2971,2450,-1,1,0
0,2972,3160,-1,1,0
0,2973,2200,-1,1,0
0,2974,3380,-1,1,0
0,2975,2040,-1,1,0
0,2976,10540,-1,1,0
0,2977,1070,-1,1,0
0,2978,700,-1,1,0
0,2979,820,-1,1,0
0,2980,4540,-1,1,0
0,2981,8620,-1,1,0
0,2982,7690,-1,1,0
0,2983,2110,-1,1,0
0,2984,1480,-1,1,0
0,2985,1210,1,1,0
0,2986,2420,-1,1,0
0,2987,7360,-1,1,0
0,2988,640,1,1,0
0,2989,2710,-1,1,0
0,2990,3680,-1,1,0
0,2991,6100,1,1,0
0,2992,5930,-1,1,0
0,2993,3890,-1,1,0
0,2994,5490,-1,1,0
0,2995,4240,-1,1,0
0,2996,1560,-1,1,0
0,2997,3310,-1,1,0
0,2998,510,-1,1,0
0,2999,3560,-1,1,0
0,3000,2490,-1,1,0
0,3001,1400,-1,1,0
0,3002,2170,-1,1,0
0,3003,7160,-1,1,0
0,3004,830,-1,1,0
0,3005,990,-1,1,0
0,3006,5480,-1,1,0
0,3007,1690,-1,1,0
0,3008,6370,-1,1,0
0,3009,3990,-1,1,0
0,3010,3220,-1,1,0
0,3011,2110,-1,1,0
0,3012,2160,-1,1,0
0,3013,4580,-1,1,0
0,3014,6100,-1,1,0
0,3015,2110,-1,1,0
0,3016,5460,-1,1,0
0,3017,6910,-1,1,0
0,3018,3240,-1,1,0
0,3019,1210,-1,1,0
0,3020,950,-1,1,0
0,3021,1920,-1,1,0
0,3022,3320,-1,1,0
0,3023,3560,-1,1,0
0,3024,610,-1,1,0
0,3025,7410,-1,1,0
0,3026,1530,-1,1,0
0,3027,2470,-1,1,0
0,3028,2810,-1,1,0
0,3029,1330,-1,1,0
0,3030,3130,1,1,0
0,3031,2930,1,1,0
0,3032,2500,-1,1,0
0,3033,3850,-1,1,0
0,3034,4610,-1,1,0
0,3035,5420,-1,1,0
0,3036,3470,-1,1,0
0,3037,3110,-1,1,0
0,3038,5560,1,1,0
0,3039,1340,-1,1,0
0,3040,1390,-1,1,0
0,3041,7830,-1,1,0
0,3042,3640,-1,1,0
0,3043,2350,-1,1,0
0,3044,13700,-1,1,0
0,3045,1150,-1,1,0
0,3046,3050,-1,1,0
0,3047,770,-1,1,0
0,3048,2770,-1,1,0
0,3049,2860,-1,1,0
0,3050,1340,-1,1,0
0,3051,760,1,1,0
0,3052,1140,-1,1,0
0,3053,8460,-1,1,0
0,3054,1050,-1,1,0
0,3055,1480,-1,1,0
0,3056,2150,-1,1,0
0,3057,990,-1,1,0
0,3058,2810,-1,1,0
0,3059,5940,-1,1,0
0,3060,1570,1,1,0
0,3061,1580,1,1,0
0,3062,740,-1,1,0
0,3063,2610,-1,1,0
0,3064,2510,-1,1,0
0,3065,5580,-1,1,0
0,3066,1420,1,1,0
0,3067,3910,1,1,0
0,3068,4660,-1,1,0
0,3069,1650,-1,1,0
0,3070,2070,-1,1,0
0,3071,2800,-1,1,0
0,3072,1300,-1,1,0
0,3073,2500,-1,1,0
0,3074,660,1,1,0
0,3075,8080,-1,1,0
0,3076,3370,1,1,0
0,3077,3980,-1,1,0
0,3078,6360,-1,1,0
0,3079,2000,-1,1,0
0,3080,6400,-1,1,0
0,3081,3010,-1,1,0
0,3082,2270,-1,1,0
0,3083,1260,-1,1,0
0,3084,740,-1,1,0
0,3085,4840,-1,1,0
0,3086,3130,-1,1,0
0,3087,1680,-1,1,0
0,3088,6470,-1,1,0
0,3089,1090,-1,1,0
0,3090,5650,-1,1,0
0,3091,730,1,1,0
0,3092,3680,-1,1,0
0,3093,3180,-1,1,0
0,3094,2800,-1,1,0
0,3095,1510,-1,1,0
0,3096,1470,-1,1,0
0,3097,6350,-1,1,0
0,3098,1740,-1,1,0
0,3099,10460,-1,1,0
0,3100,4760,-1,1,0
0,3101,6490,-1,1,0
0,3102,910,-1,1,0
0,3103,1770,-1,1,0
0,3104,850,-1,1,0
0,3105,2500,1,1,0
0,3106,750,-1,1,0
0,3107,2190,-1,1,0
0,3108,3660,1,1,0
0,3109,7110,-1,1,0
0,3110,1430,-1,1,0
0,3111,2140,-1,1,0
0,3112,820,-1,1,0
0,3113,3820,-1,1,0
0,3114,1320,-1,1,0
0,3115,660,1,1,0
0,3116,3680,-1,1,0
0,3117,2750,1,1,0
0,3118,470,-1,1,0
0,3119,2860,-1,1,0
0,3120,590,-1,1,0
0,3121,4840,1,1,0
0,3122,6210,-1,1,0
0,3123,1580,-1,1,0
0,3124,3600,-1,1,0
0,3125,9190,-1,1,0
0,3126,5640,-1,1,0
0,3127,17380,-1,1,0
0,3128,1940,-1,1,0
0,3129,1500,-1,1,0
0,3130,3400,-1,1,0
0,3131,1350,-1,1,0
0,3132,1560,-1,1,0
0,3133,2040,-1,1,0
0,3134,2560,-1,1,0
0,3135,4100,-1,1,0
0,3136,2690,-1,1,0
0,3137,1810,-1,1,0
0,3138,1120,-1,1,0
0,3139,10540,-1,1,0
0,3140,2600,-1,1,0
0,3141,9740,-1,1,0
0,3142,760,1,1,0
0,3143,3020,-1,1,0
0,3144,1460,-1,1,0
0,3145,3220,-1,1,0
0,3146,3020,-1,1,0
0,3147,6160,-1,1,0
0,3148,3270,-1,1,0
0,3149,3840,-1,1,0
0,3150,2690,-1,1,0
0,3151,1720,1,1,0
0,3152,5720,-1,1,0
0,3153,4990,-1,1,0
0,3154,2120,-1,1,0
0,3155,3770,-1,1,0
0,3156,1480,-1,1,0
0,3157,6530,-1,1,0
0,3158,4260,-1,1,0
0,3159,7710,-1,1,0
0,3160,4120,-1,1,0
0,3161,1630,-1,1,0
0,3162,840,-1,1,0
0,3163,2110,-1,1,0
0,3164,1590,-1,1,0
0,3165,940,-1,1,0
0,3166,14270,-1,1,0
0,3167,1200,-1,1,0
0,3168,1540,-1,1,0
0,3169,1090,1,1,0
0,3170,870,-1,1,0
0,3171,3890,-1,1,0
0,3172,1340,-1,1,0
0,3173,2100,-1,1,0
0,3174,1980,-1,1,0
0,3175,3920,-1,1,0
0,3176,5630,-1,1,0
0,3177,6330,-1,1,0
0,3178,6950,-1,1,0
0,3179,3410,-1,1,0
0,3180,4060,-1,1,0
0,3181,5780,-1,1,0
0,3182,580,-1,1,0
0,3183,2060,-1,1,0
0,3184,3480,-1,1,0
0,3185,3170,-1,1,0
0,3186,900,-1,1,0
0,3187,2680,-1,1,0
0,3188,1680,-1,1,0
0,3189,1450,-1,1,0
0,3190,3090,-1,1,0
0,3191,2270,-1,1,0
0,3192,6200,-1,1,0
0,3193,2750,-1,1,0
0,3194,490,-1,1,0
0,3195,2580,-1,1,0
0,3196,6280,-1,1,0
0,3197,1330,-1,1,0
0,3198,1060,-1,1,0
0,3199,4010,1,1,0
0,3200,4540,-1,-1,-1
0,3201,1930,-1,-1,-1
0,3202,10050,1,-1,-1
0,3203,1160,-1,-1,-1
0,3204,2190,1,-1,-1
0,3205,2670,1,-1,-1
0,3206,1300,-1,-1,-1
0,3207,2570,1,-1,-1
0,3208,2410,-1,-1,-1
0,3209,1460,-1,-1,-1
0,3210,1270,1,-1,-1
0,3211,970,-1,-1,-1
0,3212,7360,-1,-1,-1
0,3213,1270,-1,-1,-1
0,3214,14830,-1,-1,-1
0,3215,1170,-1,-1,-1
0,3216,7790,-1,-1,-1
0,3217,820,1,-1,-1
0,3218,5780,-1,-1,-1
0,3219,3040,-1,-1,-1
0,3220,6300,-1,-1,-1
0,3221,6310,1,-1,-1
0,3222,6580,1,-1,-1
0,3223,1990,-1,-1,-1
0,3224,1540,-1,-1,-1
0,3225,2190,1,-1,-1
0,3226,5500,1,-1,-1
0,3227,9680,1,-1,-1
0,3228,14790,-1,-1,-1
0,3229,6970,1,-1,-1
0,3230,4430,1,-1,-1
0,3231,2740,1,-1,-1
0,3232,540,-1,-1,-1
0,3233,1290,-1,-1,-1
0,3234,2150,1,-1,-1
0,3235,3070,-1,-1,-1
0,3236,2070,-1,-1,-1
0,3237,4710,-1,-1,-1
0,3238,1900,-1,-1,-1
0,3239,1460,-1,-1,-1
0,3240,3850,-1,-1,-1
0,3241,960,1,-1,-1
0,3242,4990,-1,-1,-1
0,3243,3570,-1,-1,-1
0,3244,2770,-1,-1,-1
0,3245,4030,1,-1,-1
0,3246,5230,-1,-1,-1
0,3247,1980,-1,-1,-1
0,3248,7770,-1,-1,-1
0,3249,4030,-1,-1,-1
0,3250,5620,1,-1,-1
0,3251,1060,1,-1,-1
0,3252,2940,1,-1,-1
0,3253,9610,-1,-1,-1
0,3254,2400,1,-1,-1
0,3255,3430,1,-1,-1
0,3256,8200,-1,-1,-1
0,3257,1530,1,-1,-1
0,3258,1680,-1,-1,-1
0,3259,2180,1,-1,-1
0,3260,8840,1,-1,-1
0,3261,9250,1,-1,-1
0,3262,4510,-1,-1,-1
0,3263,1380,1,-1,-1
0,3264,1630,1,-1,-1
0,3265,3410,-1,-1,-1
0,3266,7160,-1,-1,-1
0,3267,9910,1,-1,-1
0,3268,6120,-1,-1,-1
0,3269,6180,-1,-1,-1
0,3270,3730,1,-1,-1
0,3271,6350,1,-1,-1
0,3272,940,-1,-1,-1
0,3273,8130,1,-1,-1
0,3274,660,1,-1,-1
0,3275,5190,-1,-1,-1
0,3276,4740,1,-1,-1
0,3277,4710,-1,-1,-1
0,3278,2050,1,-1,-1
0,3279,2490,-1,-1,-1
0,3280,8550,-1,-1,-1
0,3281,960,-1,-1,-1
0,3282,5610,-1,-1,-1
0,3283,6520,1,-1,-1
0,3284,6770,1,-1,-1
0,3285,4220,-1,-1,-1
0,3286,3350,1,-1,-1
0,3287,4970,-1,-1,-1
0,3288,14110,-1,-1,-1
0,3289,1860,1,-1,-1
0,3290,4620,1,-1,-1
0,3291,11750,-1,-1,-1
0,3292,1340,-1,-1,-1
0,3293,560,1,-1,-1
0,3294,1260,1,-1,-1
0,3295,1850,1,-1,-1
0,3296,670,-1,-1,-1
0,3297,5600,1,-1,-1
0,3298,2840,1,-1,-1
0,3299,2570,1,-1,-1
0,3300,7550,1,-1,-1
0,3301,5830,-1,-1,-1
0,3302,920,-1,-1,-1
0,3303,3910,-1,-1,-1
0,3304,8010,-1,-1,-1
0,3305,10330,-1,-1,-1
0,3306,12240,1,-1,-1
0,3307,2330,-1,-1,-1
0,3308,6550,1,-1,-1
0,3309,2740,-1,-1,-1
0,3310,3130,-1,-1,-1
0,3311,3570,-1,-1,-1
0,3312,6420,-1,-1,-1
0,3313,5600,-1,-1,-1
0,3314,6460,-1,-1,-1
0,3315,6810,-1,-1,-1
0,3316,3340,1,-1,-1
0,3317,11530,1,-1,-1
0,3318,5320,1,-1,-1
0,3319,1860,-1,-1,-1
0,3320,11780,1,-1,-1
0,3321,2090,-1,-1,-1
0,3322,2590,-1,-1,-1
0,3323,5440,1,-1,-1
0,3324,1650,-1,-1,-1
0,3325,2470,1,-1,-1
0,3326,2000,1,-1,-1
0,3327,890,-1,-1,-1
0,3328,2230,-1,-1,-1
0,3329,4260,-1,-1,-1
0,3330,5680,-1,-1,-1
0,3331,4200,-1,-1,-1
0,3332,5700,1,-1,-1
0,3333,7340,1,-1,-1
0,3334,1080,-1,-1,-1
0,3335,5000,1,-1,-1
0,3336,7470,-1,-1,-1
0,3337,4260,-1,-1,-1
0,3338,2620,-1,-1,-1
0,3339,720,-1,-1,-1
0,3340,5990,-1,-1,-1
0,3341,770,-1,-1,-1
0,3342,2200,-1,-1,-1
0,3343,4680,-1,-1,-1
0,3344,8440,-1,-1,-1
0,3345,1410,-1,-1,-1
0,3346,3770,-1,-1,-1
0,3347,10450,1,-1,-1
0,3348,6450,-1,-1,-1
0,3349,6090,-1,-1,-1
0,3350,3000,1,-1,-1
0,3351,350,1,-1,-1
0,3352,5430,-1,-1,-1
0,3353,4790,1,-1,-1
0,3354,10880,-1,-1,-1
0,3355,3830,-1,-1,-1
0,3356,6600,-1,-1,-1
0,3357,2180,1,-1,-1
0,3358,12970,1,-1,-1
0,3359,690,-1,-1,-1
0,3360,5080,-1,-1,-1
0,3361,880,-1,-1,-1
0,3362,5010,-1,-1,-1
0,3363,2490,1,-1,-1
0,3364,4300,1,-1,-1
0,3365,3070,-1,-1,-1
0,3366,6620,-1,-1,-1
0,3367,1770,1,-1,-1
0,3368,1010,-1,-1,-1
0,3369,3230,1,-1,-1
0,3370,1950,-1,-1,-1
0,3371,880,1,-1,-1
0,3372,1090,-1,-1,-1
0,3373,3770,-1,-1,-1
0,3374,1590,-1,-1,-1
0,3375,10640,1,-1,-1
0,3376,4620,1,-1,-1
0,3377,1030,-1,-1,-1
0,3378,3950,1,-1,-1
0,3379,2160,-1,-1,-1
0,3380,2820,1,-1,-1
0,3381,6980,1,-1,-1
0,3382,2340,1,-1,-1
0,3383,6500,-1,-1,-1
0,3384,3780,-1,-1,-1
0,3385,1450,1,-1,-1
0,3386,1880,-1,-1,-1
0,3387,1750,1,-1,-1
0,3388,3830,1,-1,-1
0,3389,5890,-1,-1,-1
0,3390,5410,-1,-1,-1
0,3391,3300,-1,-1,-1
0,3392,1700,-1,-1,-1
0,3393,5300,-1,-1,-1
0,3394,1420,-1,-1,-1
0,3395,2290,-1,-1,-1
0,3396,5870,1,-1,-1
0,3397,1530,1,-1,-1
0,3398,9100,-1,-1,-1
0,3399,1920,1,-1,-1
0,3400,5080,-1,-1,-1
0,3401,3010,1,-1,-1
0,3402,9580,-1,-1,-1
0,3403,2760,1,-1,-1
0,3404,11930,1,-1,-1
0,3405,2020,-1,-1,-1
0,3406,3440,1,-1,-1
0,3407,4170,-1,-1,-1
0,3408,13520,1,-1,-1
0,3409,4510,-1,-1,-1
0,3410,4200,1,-1,-1
0,3411,7420,1,-1,-1
0,3412,1370,1,-1,-1
0,3413,2250,-1,-1,-1
0,3414,3580,-1,-1,-1
0,3415,910,-1,-1,-1
0,3416,1230,1,-1,-1
0,3417,2630,-1,-1,-1
0,3418,1170,-1,-1,-1
0,3419,5530,1,-1,-1
0,3420,10370,-1,-1,-1
0,3421,4760,1,-1,-1
0,3422,1670,-1,-1,-1
0,3423,4080,-1,-1,-1
0,3424,1400,-1,-1,-1
0,3425,1720,-1,-1,-1
0,3426,1450,1,-1,-1
0,3427,8380,-1,-1,-1
0,3428,8260,-1,-1,-1
0,3429,1800,1,-1,-1
0,3430,2480,1,-1,-1
0,3431,2350,-1,-1,-1
0,3432,1490,1,-1,-1
0,3433,1110,-1,-1,-1
0,3434,4110,-1,-1,-1
0,3435,2040,-1,-1,-1
0,3436,2020,1,-1,-1
0,3437,10990,-1,-1,-1
0,3438,32180,1,-1,-1
0,3439,1780,-1,-1,-1
0,3440,490,-1,-1,-1
0,3441,2430,1,-1,-1
0,3442,5620,1,-1,-1
0,3443,4960,-1,-1,-1
0,3444,6250,1,-1,-1
0,3445,3630,-1,-1,-1
0,3446,2370,-1,-1,-1
0,3447,5510,-1,-1,-1
0,3448,3420,-1,-1,-1
0,3449,3930,-1,-1,-1
0,3450,12680,1,-1,-1
0,3451,4940,-1,-1,-1
0,3452,9390,-1,-1,-1
0,3453,2860,1,-1,-1
0,3454,3610,1,-1,-1
0,3455,1950,-1,-1,-1
0,3456,6530,-1,-1,-1
0,3457,3840,-1,-1,-1
0,3458,8830,1,-1,-1
0,3459,4550,-1,-1,-1
0,3460,5330,-1,-1,-1
0,3461,2160,1,-1,-1
0,3462,2120,1,-1,-1
0,3463,10040,-1,-1,-1
0,3464,580,1,-1,-1
0,3465,1010,1,-1,-1
0,3466,1750,-1,-1,-1
0,3467,4290,-1,-1,-1
0,3468,6380,-1,-1,-1
0,3469,3680,-1,-1,-1
0,3470,7160,1,-1,-1
0,3471,8710,1,-1,-1
0,3472,920,-1,-1,-1
0,3473,1210,1,-1,-1
0,3474,2870,1,-1,-1
0,3475,6060,-1,-1,-1
0,3476,1650,-1,-1,-1
0,3477,3230,-1,-1,-1
0,3478,2980,-1,-1,-1
0,3479,2930,-1,-1,-1
0,3480,6490,-1,-1,-1
0,3481,5730,1,-1,-1
0,3482,990,1,-1,-1
0,3483,18740,-1,-1,-1
0,3484,3710,1,-1,-1
0,3485,3850,-1,-1,-1
0,3486,1430,1,-1,-1
0,3487,1460,1,-1,-1
0,3488,10270,1,-1,-1
0,3489,8490,-1,-1,-1
0,3490,4210,1,-1,-1
0,3491,2660,1,-1,-1
0,3492,6230,-1,-1,-1
0,3493,10320,1,-1,-1
0,3494,7080,-1,-1,-1
0,3495,1840,-1,-1,-1
0,3496,4430,-1,-1,-1
0,3497,4580,-1,-1,-1
0,3498,2610,-1,-1,-1
0,3499,7920,1,-1,-1
0,3500,3650,-1,-1,-1
0,3501,5200,-1,-1,-1
0,3502,920,-1,-1,-1
0,3503,6250,1,-1,-1
0,3504,4800,1,-1,-1
0,3505,1250,-1,-1,-1
0,3506,4810,1,-1,-1
0,3507,5450,1,-1,-1
0,3508,6790,-1,-1,-1
0,3509,4010,-1,-1,-1
0,3510,4620,1,-1,-1
0,3511,1100,-1,-1,-1
0,3512,2240,1,-1,-1
0,3513,5370,-1,-1,-1
0,3514,1440,-1,-1,-1
0,3515,2790,-1,-1,-1
0,3516,3020,-1,-1,-1
0,3517,2440,1,-1,-1
0,3518,1350,1,-1,-1
0,3519,5840,1,-1,-1
0,3520,3370,-1,-1,-1
0,3521,3230,-1,-1,-1
0,3522,2760,-1,-1,-1
0,3523,3830,1,-1,-1
0,3524,1580,-1,-1,-1
0,3525,2110,1,-1,-1
0,3526,1740,1,-1,-1
0,3527,5870,1,-1,-1
0,3528,770,1,-1,-1
0,3529,2800,1,-1,-1
0,3530,1710,-1,-1,-1
0,3531,3730,-1,-1,-1
0,3532,2630,1,-1,-1
0,3533,660,1,-1,-1
0,3534,1390,-1,-1,-1
0,3535,1320,1,-1,-1
0,3536,5610,-1,-1,-1
0,3537,840,-1,-1,-1
0,3538,2060,-1,-1,-1
0,3539,1780,1,-1,-1
0,3540,3810,-1,-1,-1
0,3541,3300,-1,-1,-1
0,3542,4930,1,-1,-1
0,3543,10300,1,-1,-1
0,3544,4090,-1,-1,-1
0,3545,3910,1,-1,-1
0,3546,890,-1,-1,-1
0,3547,2340,1,-1,-1
0,3548,1480,-1,-1,-1
0,3549,3800,-1,-1,-1
0,3550,2880,1,-1,-1
0,3551,4450,-1,-1,-1
0,3552,7150,-1,-1,-1
0,3553,7490,1,-1,-1
0,3554,4730,1,-1,-1
0,3555,7710,1,-1,-1
0,3556,3240,-1,-1,-1
0,3557,6770,-1,-1,-1
0,3558,1050,1,-1,-1
0,3559,1490,1,-1,-1
0,3560,9560,-1,-1,-1
0,3561,5900,-1,-1,-1
0,3562,1330,-1,-1,-1
0,3563,3300,-1,-1,-1
0,3564,2590,-1,-1,-1
0,3565,7380,-1,-1,-1
0,3566,6220,-1,-1,-1
0,3567,6470,-1,-1,-1
0,3568,4250,-1,-1,-1
0,3569,3460,-1,-1,-1
0,3570,1060,1,-1,-1
0,3571,5310,-1,-1,-1
0,3572,9390,-1,-1,-1
0,3573,8480,1,-1,-1
0,3574,1120,-1,-1,-1
0,3575,640,-1,-1,-1
0,3576,3800,1,-1,-1
0,3577,2810,1,-1,-1
0,3578,7220,-1,-1,-1
0,3579,11200,1,-1,-1
0,3580,5710,1,-1,-1
0,3581,2430,1,-1,-1
0,3582,5490,1,-1,-1
0,3583,2100,1,-1,-1
0,3584,2750,-1,-1,-1
0,3585,1600,-1,-1,-1
0,3586,1220,-1,-1,-1
0,3587,3900,1,-1,-1
0,3588,5420,1,-1,-1
0,3589,3810,-1,-1,-1
0,3590,1420,1,-1,-1
0,3591,5480,-1,-1,-1
0,3592,3420,1,-1,-1
0,3593,5540,-1,-1,-1
0,3594,5750,-1,-1,-1
0,3595,5940,1,-1,-1
0,3596,15100,-1,-1,-1
0,3597,2350,1,-1,-1
0,3598,2280,1,-1,-1
0,3599,420,1,-1,-1
0,3600,2130,-1,1,0
0,3601,1730,1,1,0
0,3602,8380,-1,1,0
0,3603,2640,-1,1,0
0,3604,7290,-1,1,0
0,3605,1290,-1,1,0
0,3606,4550,1,1,0
0,3607,1400,1,1,0
0,3608,4570,1,1,0
0,3609,520,-1,1,0
0,3610,1710,-1,1,0
0,3611,4370,-1,1,0
0,3612,11970,-1,1,0
0,3613,1420,-1,1,0
0,3614,1980,1,1,0
0,3615,2440,-1,1,0
0,3616,1780,-1,1,0
0,3617,940,-1,1,0
0,3618,2580,-1,1,0
0,3619,4800,-1,1,0
0,3620,830,-1,1,0
0,3621,3680,1,1,0
0,3622,3570,-1,1,0
0,3623,3860,-1,1,0
0,3624,4370,-1,1,0
0,3625,3670,-1,1,0
0,3626,5070,-1,1,0
0,3627,830,-1,1,0
0,3628,16540,-1,1,0
0,3629,670,-1,1,0
0,3630,5460,-1,1,0
0,3631,4940,-1,1,0
0,3632,2070,1,1,0
0,3633,2770,-1,1,0
0,3634,5190,-1,1,0
0,3635,4710,-1,1,0
0,3636,2560,-1,1,0
0,3637,1850,-1,1,0
0,3638,12160,1,1,0
0,3639,3490,-1,1,0
0,3640,2120,-1,1,0
0,3641,2380,1,1,0
0,3642,7380,-1,1,0
0,3643,4940,-1,1,0
0,3644,3980,-1,1,0
0,3645,1860,-1,1,0
0,3646,4000,-1,1,0
0,3647,11750,-1,1,0
0,3648,1470,-1,1,0
0,3649,10920,-1,1,0
0,3650,3750,1,1,0
0,3651,2780,-1,1,0
0,3652,1790,1,1,0
0,3653,4300,-1,1,0
0,3654,1260,1,1,0
0,3655,2630,1,1,0
0,3656,4790,-1,1,0
0,3657,6820,1,1,0
0,3658,12080,-1,1,0
0,3659,3070,-1,1,0
0,3660,1370,1,1,0
0,3661,5340,-1,1,0
0,3662,1710,-1,1,0
0,3663,1910,1,1,0
0,3664,14370,-1,1,0
0,3665,6620,-1,1,0
0,3666,4060,1,1,0
0,3667,7260,-1,1,0
0,3668,3790,1,1,0
0,3669,1510,-1,1,0
0,3670,3410,1,1,0
0,3671,1520,1,1,0
0,3672,3980,1,1,0
0,3673,720,-1,1,0
0,3674,6870,1,1,0
0,3675,7370,-1,1,0
0,3676,2190,-1,1,0
0,3677,1620,1,1,0
0,3678,5140,-1,1,0
0,3679,3150,-1,1,0
0,3680,5520,-1,1,0
0,3681,4150,1,1,0
0,3682,2090,-1,1,0
0,3683,1170,-1,1,0
0,3684,2370,-1,1,0
0,3685,5010,-1,1,0
0,3686,2170,1,1,0
0,3687,7730,-1,1,0
0,3688,6780,1,1,0
0,3689,7990,-1,1,0
0,3690,1870,-1,1,0
0,3691,1250,-1,1,0
0,3692,3890,-1,1,0
0,3693,6100,1,1,0
0,3694,1680,-1,1,0
0,3695,1790,-1,1,0
0,3696,6080,1,1,0
0,3697,1710,-1,1,0
0,3698,2970,-1,1,0
0,3699,1090,-1,1,0
0,3700,6020,-1,1,0
0,3701,1620,-1,1,0
0,3702,1930,-1,1,0
0,3703,7280,-1,1,0
0,3704,1280,-1,1,0
0,3705,1020,-1,1,0
0,3706,6160,-1,1,0
0,3707,6500,-1,1,0
0,3708,6930,-1,1,0
0,3709,1820,-1,1,0
0,3710,3320,-1,1,0
0,3711,1220,-1,1,0
0,3712,1920,1,1,0
0,3713,7120,-1,1,0
0,3714,3120,1,1,0
0,3715,1350,1,1,0
0,3716,890,1,1,0
0,3717,4890,-1,1,0
0,3718,3330,-1,1,0
0,3719,5260,-1,1,0
0,3720,4010,-1,1,0
0,3721,2610,-1,1,0
0,3722,4610,1,1,0
0,3723,8830,-1,1,0
0,3724,1890,1,1,0
0,3725,880,-1,1,0
0,3726,5220,-1,1,0
0,3727,1510,-1,1,0
0,3728,11720,-1,1,0
0,3729,2630,-1,1,0
0,3730,1910,-1,1,0
0,3731,1880,-1,1,0
0,3732,1540,1,1,0
0,3733,10180,-1,1,0
0,3734,950,-1,1,0
0,3735,750,-1,1,0
0,3736,3720,-1,1,0
0,3737,11370,-1,1,0
0,3738,7090,-1,1,0
0,3739,2420,-1,1,0
0,3740,530,1,1,0
0,3741,1160,-1,1,0
0,3742,2960,-1,1,0
0,3743,7170,-1,1,0
0,3744,1510,1,1,0
0,3745,1270,-1,1,0
0,3746,8060,-1,1,0
0,3747,880,1,1,0
0,3748,6180,-1,1,0
0,3749,4310,1,1,0
0,3750,1660,-1,1,0
0,3751,1340,-1,1,0
0,3752,5160,1,1,0
0,3753,4660,1,1,0
0,3754,7130,-1,1,0
0,3755,5320,1,1,0
0,3756,2320,1,1,0
0,3757,840,-1,1,0
0,3758,1200,-1,1,0
0,3759,6890,-1,1,0
0,3760,5600,-1,1,0
0,3761,560,-1,1,0
0,3762,1300,-1,1,0
0,3763,970,-1,1,0
0,3764,4860,-1,1,0
0,3765,5640,-1,1,0
0,3766,730,-1,1,0
0,3767,2240,1,1,0
0,3768,14290,-1,1,0
0,3769,3960,-1,1,0
0,3770,12070,-1,1,0
0,3771,9530,-1,1,0
0,3772,6730,-1,1,0
0,3773,4550,-1,1,0
0,3774,5790,-1,1,0
0,3775,6350,-1,1,0
0,3776,430,-1,1,0
0,3777,4190,1,1,0
0,3778,11170,-1,1,0
0,3779,1090,1,1,0
0,3780,1330,-1,1,0
0,3781,9570,1,1,0
0,3782,3370,-1,1,0
0,3783,2640,-1,1,0
0,3784,2200,1,1,0
0,3785,2870,-1,1,0
0,3786,1480,1,1,0
0,3787,2740,-1,1,0
0,3788,1570,-1,1,0
0,3789,4480,1,1,0
0,3790,2380,-1,1,0
0,3791,5970,-1,1,0
0,3792,8190,-1,1,0
0,3793,17130,1,1,0
0,3794,15430,-1,1,0
0,3795,1950,-1,1,0
0,3796,3390,-1,1,0
0,3797,1150,-1,1,0
0,3798,1650,1,1,0
0,3799,2050,1,1,0
0,3800,12640,-1,1,0
0,3801,450,-1,1,0
0,3802,4630,-1,1,0
0,3803,4130,-1,1,0
0,3804,2200,1,1,0
0,3805,2900,1,1,0
0,3806,4610,1,1,0
0,3807,4410,-1,1,0
0,3808,3780,-1,1,0
0,3809,1860,-1,1,0
0,3810,13520,-1,1,0
0,3811,910,1,1,0
0,3812,1110,-1,1,0
0,3813,3640,-1,1,0
0,3814,2880,-1,1,0
0,3815,18330,1,1,0
0,3816,1670,-1,1,0
0,3817,1380,-1,1,0
0,3818,5510,-1,1,0
0,3819,5380,1,1,0
0,3820,1260,1,1,0
0,3821,3640,-1,1,0
0,3822,2390,-1,1,0
0,3823,6690,1,1,0
0,3824,1860,-1,1,0
0,3825,950,1,1,0
0,3826,800,-1,1,0
0,3827,840,1,1,0
0,3828,2320,1,1,0
0,3829,1590,-1,1,0
0,3830,4890,1,1,0
0,3831,1540,-1,1,0
0,3832,5760,-1,1,0
0,3833,2140,-1,1,0
0,3834,1610,-1,1,0
0,3835,11940,-1,1,0
0,3836,5200,-1,1,0
0,3837,3120,-1,1,0
0,3838,3970,-1,1,0
0,3839,4690,-1,1,0
0,3840,5320,-1,1,0
0,3841,2170,1,1,0
0,3842,2260,1,1,0
0,3843,8460,-1,1,0
0,3844,2910,-1,1,0
0,3845,3490,-1,1,0
0,3846,1950,-1,1,0
0,3847,2490,-1,1,0
0,3848,3280,-1,1,0
0,3849,4530,-1,1,0
0,3850,700,-1,1,0
0,3851,1310,-1,1,0
0,3852,1440,1,1,0
0,3853,1540,1,1,0
0,3854,9830,-1,1,0
0,3855,720,-1,1,0
0,3856,7230,-1,1,0
0,3857,3240,-1,1,0
0,3858,3440,-1,1,0
0,3859,1580,-1,1,0
0,3860,1080,-1,1,0
0,3861,10130,-1,1,0
0,3862,2500,-1,1,0
0,3863,6570,-1,1,0
0,3864,4440,-1,1,0
0,3865,1730,-1,1,0
0,3866,1600,1,1,0
0,3867,2260,-1,1,0
0,3868,10090,-1,1,0
0,3869,800,-1,1,0
0,3870,1140,-1,1,0
0,3871,3440,-1,1,0
0,3872,1590,-1,1,0
0,3873,4920,-1,1,0
0,3874,6230,-1,1,0
0,3875,2080,-1,1,0
0,3876,1320,-1,1,0
0,3877,12420,-1,1,0
0,3878,7970,-1,1,0
0,3879,1350,-1,1,0
0,3880,1180,-1,1,0
0,3881,10250,-1,1,0
0,3882,430,-1,1,0
0,3883,620,1,1,0
0,3884,9510,1,1,0
0,3885,6160,-1,1,0
0,3886,4110,-1,1,0
0,3887,1280,-1,1,0
0,3888,2050,1,1,0
0,3889,9720,-1,1,0
0,3890,7870,-1,1,0
0,3891,1460,-1,1,0
0,3892,6270,1,1,0
0,3893,2310,-1,1,0
0,3894,3830,-1,1,0
0,3895,3720,-1,1,0
0,3896,3690,1,1,0
0,3897,3330,-1,1,0
0,3898,3180,-1,1,0
0,3899,2470,1,1,0
0,3900,1520,-1,1,0
0,3901,7160,-1,1,0
0,3902,2130,-1,1,0
0,3903,730,1,1,0
0,3904,5310,-1,1,0
0,3905,2720,-1,1,0
0,3906,9630,1,1,0
0,3907,1120,-1,1,0
0,3908,1000,1,1,0
0,3909,2820,-1,1,0
0,3910,2240,1,1,0
0,3911,1610,-1,1,0
0,3912,5690,-1,1,0
0,3913,860,-1,1,0
0,3914,2890,-1,1,0
0,3915,2380,-1,1,0
0,3916,4420,-1,1,0
0,3917,2800,1,1,0
0,3918,1350,-1,1,0
0,3919,3540,-1,1,0
0,3920,1350,-1,1,0
0,3921,3280,-1,1,0
0,3922,2120,-1,1,0
0,3923,2120,-1,1,0
0,3924,7040,-1,1,0
0,3925,8160,1,1,0
0,3926,7640,-1,1,0
0,3927,3860,1,1,0
0,3928,5070,-1,1,0
0,3929,4000,-1,1,0
0,3930,1730,-1,1,0
0,3931,6790,1,1,0
0,3932,3480,1,1,0
0,3933,3890,1,1,0
0,3934,1750,-1,1,0
0,3935,7840,-1,1,0
0,3936,6210,-1,1,0
0,3937,12210,1,1,0
0,3938,3510,1,1,0
0,3939,910,1,1,0
0,3940,4360,-1,1,0
0,3941,5080,-1,1,0
0,3942,1030,-1,1,0
0,3943,15600,-1,1,0
0,3944,1780,-1,1,0
0,3945,5800,1,1,0
0,3946,3830,-1,1,0
0,3947,7350,1,1,0
0,3948,2460,-1,1,0
0,3949,5000,-1,1,0
0,3950,5140,-1,1,0
0,3951,1480,-1,1,0
0,3952,1250,1,1,0
0,3953,3350,-1,1,0
0,3954,1400,-1,1,0
0,3955,3220,-1,1,0
0,3956,1600,1,1,0
0,3957,5900,1,1,0
0,3958,6940,-1,1,0
0,3959,970,1,1,0
0,3960,5750,1,1,0
0,3961,2080,-1,1,0
0,3962,1710,1,1,0
0,3963,1630,-1,1,0
0,3964,1370,-1,1,0
0,3965,4740,1,1,0
0,3966,3840,-1,1,0
0,3967,4600,1,1,0
0,3968,1640,-1,1,0
0,3969,2340,-1,1,0
0,3970,2920,-1,1,0
0,3971,1070,-1,1,0
0,3972,1480,-1,1,0
0,3973,3050,-1,1,0
0,3974,1560,-1,1,0
0,3975,1340,1,1,0
0,3976,3860,-1,1,0
0,3977,2230,-1,1,0
0,3978,4140,-1,1,0
0,3979,2160,-1,1,0
0,3980,8830,-1,1,0
0,3981,3160,-1,1,0
0,3982,3160,1,1,0
0,3983,2610,-1,1,0
0,3984,480,1,1,0
0,3985,540,1,1,0
0,3986,1660,-1,1,0
0,3987,5990,-1,1,0
0,3988,2250,1,1,0
0,3989,2310,-1,1,0
0,3990,710,-1,1,0
0,3991,3250,-1,1,0
0,3992,8920,-1,1,0
0,3993,2780,-1,1,0
0,3994,1590,-1,1,0
0,3995,3640,-1,1,0
0,3996,1670,-1,1,0
0,3997,5890,-1,1,0
0,3998,1030,-1,1,0
0,3999,6490,-1,1,0
0,4000,2980,1,-1,-1
0,4001,4420,1,-1,-1
0,4002,10960,1,-1,-1
0,4003,2570,1,-1,-1
0,4004,2760,1,-1,-1
0,4005,5150,1,-1,-1
0,4006,4520,1,-1,-1
0,4007,1540,-1,-1,-1
0,4008,570,1,-1,-1
0,4009,2130,1,-1,-1
0,4010,13370,-1,-1,-1
0,4011,7830,1,-1,-1
0,4012,9490,1,-1,-1
0,4013,1650,1,-1,-1
0,4014,3630,1,-1,-1
0,4015,660,1,-1,-1
0,4016,4620,1,-1,-1
0,4017,7830,-1,-1,-1
0,4018,2290,-1,-1,-1
0,4019,3840,1,-1,-1
0,4020,2420,1,-1,-1
0,4021,4210,-1,-1,-1
0,4022,2930,1,-1,-1
0,4023,4400,-1,-1,-1
0,4024,8310,-1,-1,-1
0,4025,1630,-1,-1,-1
0,4026,8540,-1,-1,-1
0,4027,3300,1,-1,-1
0,4028,8140,-1,-1,-1
0,4029,1550,1,-1,-1
0,4030,4920,-1,-1,-1
0,4031,2060,-1,-1,-1
0,4032,3840,1,-1,-1
0,4033,2370,1,-1,-1
0,4034,8520,1,-1,-1
0,4035,10650,-1,-1,-1
0,4036,4630,1,-1,-1
0,4037,11160,-1,-1,-1
0,4038,8430,1,-1,-1
0,4039,7830,-1,-1,-1
0,4040,10040,1,-1,-1
0,4041,8690,-1,-1,-1
0,4042,3930,-1,-1,-1
0,4043,1490,-1,-1,-1
0,4044,1340,1,-1,-1
0,4045,1590,1,-1,-1
0,4046,2460,-1,-1,-1
0,4047,4590,1,-1,-1
0,4048,1800,1,-1,-1
0,4049,1470,1,-1,-1
0,4050,810,-1,-1,-1
0,4051,3900,1,-1,-1
0,4052,12680,1,-1,-1
0,4053,1360,1,-1,-1
0,4054,1830,1,-1,-1
0,4055,1070,-1,-1,-1
0,4056,21160,-1,-1,-1
0,4057,6600,1,-1,-1
0,4058,2250,1,-1,-1
0,4059,4380,1,-1,-1
0,4060,4150,-1,-1,-1
0,4061,1470,-1,-1,-1
0,4062,12520,1,-1,-1
0,4063,3930,1,-1,-1
0,4064,2630,-1,-1,-1
0,4065,7690,1,-1,-1
0,4066,1010,1,-1,-1
0,4067,7320,1,-1,-1
0,4068,1410,1,-1,-1
0,4069,14060,-1,-1,-1
0,4070,3980,-1,-1,-1
0,4071,650,-1,-1,-1
0,4072,12910,-1,-1,-1
0,4073,6790,1,-1,-1
0,4074,2300,1,-1,-1
0,4075,4780,1,-1,-1
0,4076,3960,1,-1,-1
0,4077,1520,1,-1,-1
0,4078,1190,-1,-1,-1
0,4079,7480,1,-1,-1
0,4080,3010,1,-1,-1
0,4081,2150,1,-1,-1
0,4082,3040,-1,-1,-1
0,4083,580,1,-1,-1
0,4084,1970,1,-1,-1
0,4085,640,1,-1,-1
0,4086,1250,1,-1,-1
0,4087,1480,1,-1,-1
0,4088,1450,1,-1,-1
0,4089,4510,1,-1,-1
0,4090,1250,-1,-1,-1
0,4091,6110,-1,-1,-1
0,4092,2990,1,-1,-1
0,4093,3140,-1,-1,-1
0,4094,5870,1,-1,-1
0,4095,3170,-1,-1,-1
0,4096,2710,-1,-1,-1
0,4097,2610,-1,-1,-1
0,4098,11090,1,-1,-1
0,4099,3380,1,-1,-1
0,4100,16560,-1,-1,-1
0,4101,1460,1,-1,-1
0,4102,4700,1,-1,-1
0,4103,1060,-1,-1,-1
0,4104,3330,-1,-1,-1
0,4105,4240,-1,-1,-1
0,4106,3490,1,-1,-1
0,4107,1120,-1,-1,-1
0,4108,11160,-1,-1,-1
0,4109,6500,1,-1,-1
0,4110,21050,1,-1,-1
0,4111,2870,1,-1,-1
0,4112,4310,-1,-1,-1
0,4113,2950,-1,-1,-1
0,4114,1730,1,-1,-1
0,4115,1040,-1,-1,-1
0,4116,6400,1,-1,-1
0,4117,1650,-1,-1,-1
0,4118,1350,1,-1,-1
0,4119,6040,-1,-1,-1
0,4120,3110,1,-1,-1
0,4121,4400,1,-1,-1
0,4122,3800,1,-1,-1
0,4123,8850,-1,-1,-1
0,4124,2020,1,-1,-1
0,4125,6900,-1,-1,-1
0,4126,850,1,-1,-1
0,4127,8180,-1,-1,-1
0,4128,3080,1,-1,-1
0,4129,2420,1,-1,-1
0,4130,3240,1,-1,-1
0,4131,2580,1,-1,-1
0,4132,2730,1,-1,-1
0,4133,3650,1,-1,-1
0,4134,8250,-1,-1,-1
0,4135,3570,1,-1,-1
0,4136,4820,-1,-1,-1
0,4137,4360,-1,-1,-1
0,4138,14970,-1,-1,-1
0,4139,2640,1,-1,-1
0,4140,1450,-1,-1,-1
0,4141,940,1,-1,-1
0,4142,1530,1,-1,-1
0,4143,690,1,-1,-1
0,4144,7540,1,-1,-1
0,4145,3150,-1,-1,-1
0,4146,8130,-1,-1,-1
0,4147,1020,-1,-1,-1
0,4148,1490,1,-1,-1
0,4149,7210,1,-1,-1
0,4150,3060,-1,-1,-1
0,4151,1260,1,-1,-1
0,4152,6610,1,-1,-1
0,4153,2710,1,-1,-1
0,4154,2690,1,-1,-1
0,4155,4120,-1,-1,-1
0,4156,12900,1,-1,-1
0,4157,5220,1,-1,-1
0,4158,7180,-1,-1,-1
0,4159,5840,-1,-1,-1
0,4160,3900,-1,-1,-1
0,4161,7220,1,-1,-1
0,4162,1640,-1,-1,-1
0,4163,8490,1,-1,-1
0,4164,930,-1,-1,-1
0,4165,9800,1,-1,-1
0,4166,3250,-1,-1,-1
0,4167,5510,1,-1,-1
0,4168,1780,1,-1,-1
0,4169,4310,1,-1,-1
0,4170,1160,-1,-1,-1
0,4171,11730,1,-1,-1
0,4172,8580,-1,-1,-1
0,4173,11490,1,-1,-1
0,4174,800,1,-1,-1
0,4175,2280,1,-1,-1
0,4176,4980,-1,-1,-1
0,4177,4680,-1,-1,-1
0,4178,850,1,-1,-1
0,4179,2230,1,-1,-1
0,4180,7740,1,-1,-1
0,4181,1280,1,-1,-1
0,4182,1940,1,-1,-1
0,4183,1610,1,-1,-1
0,4184,1290,1,-1,-1
0,4185,1860,1,-1,-1
0,4186,1510,-1,-1,-1
0,4187,3110,1,-1,-1
0,4188,2040,1,-1,-1
0,4189,3020,-1,-1,-1
0,4190,6610,1,-1,-1
0,4191,3890,1,-1,-1
0,4192,760,1,-1,-1
0,4193,3220,1,-1,-1
0,4194,3430,-1,-1,-1
0,4195,2320,1,-1,-1
0,4196,4850,1,-1,-1
0,4197,3540,1,-1,-1
0,4198,1830,1,-1,-1
0,4199,4120,-1,-1,-1
0,4200,3760,-1,-1,-1
0,4201,2780,1,-1,-1
0,4202,4450,1,-1,-1
0,4203,9350,1,-1,-1
0,4204,360,1,-1,-1
0,4205,11800,-1,-1,-1
0,4206,1520,1,-1,-1
0,4207,7580,1,-1,-1
0,4208,3080,1,-1,-1
0,4209,7450,-1,-1,-1
0,4210,4980,1,-1,-1
0,4211,3920,1,-1,-1
0,4212,1210,-1,-1,-1
0,4213,4180,-1,-1,-1
0,4214,20360,-1,-1,-1
0,4215,3280,-1,-1,-1
0,4216,5140,1,-1,-1
0,4217,10160,1,-1,-1
0,4218,2150,-1,-1,-1
0,4219,1970,1,-1,-1
0,4220,6030,-1,-1,-1
0,4221,18780,-1,-1,-1
0,4222,10040,1,-1,-1
0,4223,3560,1,-1,-1
0,4224,3620,1,-1,-1
0,4225,3440,-1,-1,-1
0,4226,560,1,-1,-1
0,4227,1360,-1,-1,-1
0,4228,5480,1,-1,-1
0,4229,9300,1,-1,-1
0,4230,830,-1,-1,-1
0,4231,2000,1,-1,-1
0,4232,12150,-1,-1,-1
0,4233,4280,1,-1,-1
0,4234,5690,1,-1,-1
0,4235,1930,-1,-1,-1
0,4236,8950,1,-1,-1
0,4237,2680,-1,-1,-1
0,4238,3890,1,-1,-1
0,4239,2150,1,-1,-1
0,4240,2860,-1,-1,-1
0,4241,1910,1,-1,-1
0,4242,1630,-1,-1,-1
0,4243,5660,1,-1,-1
0,4244,13000,-1,-1,-1
0,4245,5080,1,-1,-1
0,4246,4730,1,-1,-1
0,4247,3230,1,-1,-1
0,4248,3030,1,-1,-1
0,4249,320,1,-1,-1
0,4250,1240,-1,-1,-1
0,4251,4810,-1,-1,-1
0,4252,3360,1,-1,-1
0,4253,4810,1,-1,-1
0,4254,1510,1,-1,-1
0,4255,11950,-1,-1,-1
0,4256,2020,-1,-1,-1
0,4257,11120,-1,-1,-1
0,4258,5900,1,-1,-1
0,4259,1610,-1,-1,-1
0,4260,2900,-1,-1,-1
0,4261,1210,-1,-1,-1
0,4262,1410,-1,-1,-1
0,4263,1060,1,-1,-1
0,4264,800,1,-1,-1
0,4265,780,-1,-1,-1
0,4266,3920,1,-1,-1
0,4267,7660,1,-1,-1
0,4268,490,1,-1,-1
0,4269,2840,-1,-1,-1
0,4270,620,1,-1,-1
0,4271,9890,-1,-1,-1
0,4272,1180,1,-1,-1
0,4273,5190,-1,-1,-1
0,4274,1930,-1,-1,-1
0,4275,2550,-1,-1,-1
0,4276,2610,1,-1,-1
0,4277,5290,1,-1,-1
0,4278,1820,1,-1,-1
0,4279,3960,-1,-1,-1
0,4280,3670,-1,-1,-1
0,4281,1900,1,-1,-1
0,4282,1250,1,-1,-1
0,4283,1810,1,-1,-1
0,4284,2290,1,-1,-1
0,4285,3070,-1,-1,-1
0,4286,2930,1,-1,-1
0,4287,10620,-1,-1,-1
0,4288,3930,1,-1,-1
0,4289,900,-1,-1,-1
0,4290,5950,1,-1,-1
0,4291,940,-1,-1,-1
0,4292,1500,1,-1,-1
0,4293,1000,-1,-1,-1
0,4294,1060,-1,-1,-1
0,4295,1830,1,-1,-1
0,4296,2680,1,-1,-1
0,4297,1680,-1,-1,-1
0,4298,1320,1,-1,-1
0,4299,4760,1,-1,-1
0,4300,1760,-1,-1,-1
0,4301,3180,-1,-1,-1
0,4302,2350,1,-1,-1
0,4303,8270,-1,-1,-1
0,4304,4060,-1,-1,-1
0,4305,1770,1,-1,-1
0,4306,5390,-1,-1,-1
0,4307,980,-1,-1,-1
0,4308,2080,1,-1,-1
0,4309,2150,1,-1,-1
0,4310,3700,-1,-1,-1
0,4311,1030,1,-1,-1
0,4312,3020,-1,-1,-1
0,4313,10470,-1,-1,-1
0,4314,3460,1,-1,-1
0,4315,1140,1,-1,-1
0,4316,2980,-1,-1,-1
0,4317,1770,1,-1,-1
0,4318,17700,1,-1,-1
0,4319,7820,1,-1,-1
0,4320,5500,1,-1,-1
0,4321,7830,-1,-1,-1
0,4322,1580,1,-1,-1
0,4323,3540,-1,-1,-1
0,4324,820,1,-1,-1
0,4325,9970,-1,-1,-1
0,4326,2710,1,-1,-1
0,4327,3640,1,-1,-1
0,4328,7290,1,-1,-1
0,4329,7150,1,-1,-1
0,4330,2020,-1,-1,-1
0,4331,13590,1,-1,-1
0,4332,510,-1,-1,-1
0,4333,4680,-1,-1,-1
0,4334,3890,-1,-1,-1
0,4335,5950,1,-1,-1
0,4336,2820,1,-1,-1
0,4337,320,1,-1,-1
0,4338,3630,-1,-1,-1
0,4339,2760,-1,-1,-1
0,4340,5960,1,-1,-1
0,4341,820,1,-1,-1
0,4342,1300,1,-1,-1
0,4343,2060,1,-1,-1
0,4344,11530,1,-1,-1
0,4345,1380,1,-1,-1
0,4346,920,-1,-1,-1
0,4347,3050,-1,-1,-1
0,4348,2510,1,-1,-1
0,4349,1840,1,-1,-1
0,4350,5120,1,-1,-1
0,4351,2490,-1,-1,-1
0,4352,3080,1,-1,-1
0,4353,1870,1,-1,-1
0,4354,6240,-1,-1,-1
0,4355,1860,1,-1,-1
0,4356,1250,1,-1,-1
0,4357,2190,1,-1,-1
0,4358,6460,1,-1,-1
0,4359,1660,-1,-1,-1
0,4360,5790,-1,-1,-1
0,4361,480,-1,-1,-1
0,4362,10390,1,-1,-1
0,4363,4390,1,-1,-1
0,4364,3550,1,-1,-1
0,4365,3840,-1,-1,-1
0,4366,4430,1,-1,-1
0,4367,3210,1,-1,-1
0,4368,8360,1,-1,-1
0,4369,12520,-1,-1,-1
0,4370,3190,1,-1,-1
0,4371,10040,-1,-1,-1
0,4372,5530,1,-1,-1
0,4373,7750,-1,-1,-1
0,4374,2750,1,-1,-1
0,4375,2410,1,-1,-1
0,4376,2860,1,-1,-1
0,4377,5170,-1,-1,-1
0,4378,6020,1,-1,-1
0,4379,710,1,-1,-1
0,4380,9420,1,-1,-1
0,4381,5530,1,-1,-1
0,4382,4220,1,-1,-1
0,4383,1310,1,-1,-1
0,4384,1890,1,-1,-1
0,4385,8660,1,-1,-1
0,4386,4560,1,-1,-1
0,4387,620,1,-1,-1
0,4388,1420,-1,-1,-1
0,4389,4160,1,-1,-1
0,4390,2630,1,-1,-1
0,4391,1130,-1,-1,-1
0,4392,1860,-1,-1,-1
0,4393,3740,1,-1,-1
0,4394,2080,1,-1,-1
0,4395,5920,1,-1,-1
0,4396,7610,-1,-1,-1
0,4397,9780,-1,-1,-1
0,4398,870,1,-1,-1
0,4399,7830,-1,-1,-1
0,4400,1090,1,0,0
0,4401,2290,-1,0,0
0,4402,9330,-1,0,0
0,4403,1420,-1,0,0
0,4404,3430,1,0,0
0,4405,7980,1,0,0
0,4406,2270,-1,0,0
0,4407,1460,1,0,0
0,4408,8080,1,0,0
0,4409,850,-1,0,0
0,4410,3880,1,0,0
0,4411,910,1,0,0
0,4412,2480,1,0,0
0,4413,16810,-1,0,0
0,4414,3330,1,0,0
0,4415,1940,-1,0,0
0,4416,6530,-1,0,0
0,4417,11420,1,0,0
0,4418,10850,-1,0,0
0,4419,5480,1,0,0
0,4420,2190,1,0,0
0,4421,4950,1,0,0
0,4422,2170,-1,0,0
0,4423,1870,1,0,0
0,4424,3410,-1,0,0
0,4425,6030,1,0,0
0,4426,810,-1,0,0
0,4427,8230,-1,0,0
0,4428,3280,-1,0,0
0,4429,1250,-1,0,0
0,4430,1930,-1,0,0
0,4431,1580,1,0,0
0,4432,8140,1,0,0
0,4433,5920,-1,0,0
0,4434,3850,1,0,0
0,4435,1820,1,0,0
0,4436,11990,-1,0,0
0,4437,2080,-1,0,0
0,4438,3490,-1,0,0
0,4439,2100,1,0,0
0,4440,1600,-1,0,0
0,4441,2820,1,0,0
0,4442,950,-1,0,0
0,4443,1840,1,0,0
0,4444,2050,1,0,0
0,4445,9280,-1,0,0
0,4446,2510,1,0,0
0,4447,2740,1,0,0
0,4448,2170,1,0,0
0,4449,1760,-1,0,0
0,4450,1150,1,0,0
0,4451,1980,1,0,0
0,4452,9970,-1,0,0
0,4453,14930,-1,0,0
0,4454,2330,1,0,0
0,4455,3600,-1,0,0
0,4456,3790,1,0,0
0,4457,7270,-1,0,0
0,4458,7540,1,0,0
0,4459,5300,-1,0,0
0,4460,3010,-1,0,0
0,4461,1480,1,0,0
0,4462,5550,1,0,0
0,4463,4280,1,0,0
0,4464,8960,1,0,0
0,4465,2520,-1,0,0
0,4466,1520,1,0,0
0,4467,6200,-1,0,0
0,4468,2270,-1,0,0
0,4469,5350,-1,0,0
0,4470,1670,1,0,0
0,4471,1170,-1,0,0
0,4472,4120,1,0,0
0,4473,2290,-1,0,0
0,4474,1850,-1,0,0
0,4475,11780,1,0,0
0,4476,9610,1,0,0
0,4477,1550,1,0,0
0,4478,7650,-1,0,0
0,4479,2430,-1,0,0
0,4480,3020,-1,0,0
0,4481,2580,1,0,0
0,4482,4690,1,0,0
0,4483,4840,1,0,0
0,4484,4950,1,0,0
0,4485,14830,1,0,0
0,4486,1570,1,0,0
0,4487,910,-1,0,0
0,4488,5680,1,0,0
0,4489,3170,1,0,0
0,4490,5300,1,0,0
0,4491,1560,1,0,0
0,4492,8260,1,0,0
0,4493,6900,1,0,0
0,4494,1190,1,0,0
0,4495,2940,-1,0,0
0,4496,4720,1,0,0
0,4497,2100,1,0,0
0,4498,930,-1,0,0
0,4499,1250,-1,0,0
0,4500,2020,1,0,0
0,4501,3270,1,0,0
0,4502,3870,1,0,0
0,4503,1400,1,0,0
0,4504,4550,-1,0,0
0,4505,4130,-1,0,0
0,4506,1420,1,0,0
0,4507,3130,1,0,0
0,4508,3170,-1,0,0
0,4509,2290,1,0,0
0,4510,6450,1,0,0
0,4511,3300,-1,0,0
0,4512,680,1,0,0
0,4513,2950,-1,0,0
0,4514,9900,1,0,0
0,4515,5290,-1,0,0
0,4516,1570,1,0,0
0,4517,11080,-1,0,0
0,4518,10560,1,0,0
0,4519,5910,-1,0,0
0,4520,3260,1,0,0
0,4521,2680,1,0,0
0,4522,2300,-1,0,0
0,4523,1990,-1,0,0
0,4524,3230,-1,0,0
0,4525,920,1,0,0
0,4526,8800,1,0,0
0,4527,1030,-1,0,0
0,4528,6570,-1,0,0
0,4529,3350,-1,0,0
0,4530,2540,-1,0,0
0,4531,3110,-1,0,0
0,4532,3200,1,0,0
0,4533,4940,1,0,0
0,4534,7060,1,0,0
0,4535,8380,-1,0,0
0,4536,860,1,0,0
0,4537,3730,1,0,0
0,4538,3590,-1,0,0
0,4539,980,1,0,0
0,4540,5410,1,0,0
0,4541,620,1,0,0
0,4542,16760,1,0,0
0,4543,10180,1,0,0
0,4544,9450,-1,0,0
0,4545,13670,-1,0,0
0,4546,4820,-1,0,0
0,4547,1260,1,0,0
0,4548,4050,1,0,0
0,4549,4240,-1,0,0
0,4550,7980,-1,0,0
0,4551,2460,1,0,0
0,4552,7760,-1,0,0
0,4553,2000,1,0,0
0,4554,6930,1,0,0
0,4555,2050,-1,0,0
0,4556,6840,1,0,0
0,4557,1490,1,0,0
0,4558,4230,-1,0,0
0,4559,880,1,0,0
0,4560,2420,1,0,0
0,4561,7540,-1,0,0
0,4562,890,1,0,0
0,4563,1700,-1,0,0
0,4564,560,1,0,0
0,4565,9990,1,0,0
0,4566,3150,1,0,0
0,4567,2030,-1,0,0
0,4568,5920,-1,0,0
0,4569,11030,1,0,0
0,4570,4700,1,0,0
0,4571,4150,-1,0,0
0,4572,5110,1,0,0
0,4573,6590,1,0,0
0,4574,2960,-1,0,0
0,4575,3290,1,0,0
0,4576,2020,-1,0,0
0,4577,2990,1,0,0
0,4578,1660,-1,0,0
0,4579,4040,-1,0,0
0,4580,3290,-1,0,0
0,4581,5130,1,0,0
0,4582,3670,-1,0,0
0,4583,10580,-1,0,0
0,4584,5320,-1,0,0
0,4585,4150,1,0,0
0,4586,4180,-1,0,0
0,4587,4900,1,0,0
0,4588,870,1,0,0
0,4589,4730,-1,0,0
0,4590,2850,1,0,0
0,4591,3850,-1,0,0
0,4592,2310,1,0,0
0,4593,1650,1,0,0
0,4594,1400,1,0,0
0,4595,11980,-1,0,0
0,4596,12470,-1,0,0
0,4597,410,-1,0,0
0,4598,1220,-1,0,0
0,4599,4990,1,0,0
0,4600,990,1,0,0
0,4601,4510,-1,0,0
0,4602,3780,1,0,0
0,4603,2360,-1,0,0
0,4604,5340,-1,0,0
0,4605,4780,1,0,0
0,4606,2650,1,0,0
0,4607,5420,-1,0,0
0,4608,8130,-1,0,0
0,4609,460,1,0,0
0,4610,7010,1,0,0
0,4611,10300,-1,0,0
0,4612,14060,-1,0,0
0,4613,4950,1,0,0
0,4614,3220,1,0,0
0,4615,4760,1,0,0
0,4616,5770,-1,0,0
0,4617,1400,-1,0,0
0,4618,2250,1,0,0
0,4619,16560,-1,0,0
0,4620,2400,-1,0,0
0,4621,4830,1,0,0
0,4622,970,-1,0,0
0,4623,1670,1,0,0
0,4624,6290,-1,0,0
0,4625,4980,1,0,0
0,4626,1740,1,0,0
0,4627,3580,-1,0,0
0,4628,7970,-1,0,0
0,4629,3600,1,0,0
0,4630,1150,1,0,0
0,4631,2620,-1,0,0
0,4632,1930,-1,0,0
0,4633,3440,-1,0,0
0,4634,8610,1,0,0
0,4635,17000,-1,0,0
0,4636,460,-1,0,0
0,4637,4750,1,0,0
0,4638,5670,-1,0,0
0,4639,2330,-1,0,0
0,4640,1540,1,0,0
0,4641,5620,1,0,0
0,4642,20220,1,0,0
0,4643,4530,-1,0,0
0,4644,1040,1,0,0
0,4645,7440,-1,0,0
0,4646,5590,1,0,0
0,4647,1430,1,0,0
0,4648,1760,1,0,0
0,4649,3530,1,0,0
0,4650,1660,1,0,0
0,4651,1890,1,0,0
0,4652,2400,1,0,0
0,4653,13400,-1,0,0
0,4654,1880,1,0,0
0,4655,5310,1,0,0
0,4656,18060,1,0,0
0,4657,1080,1,0,0
0,4658,3250,1,0,0
0,4659,4950,-1,0,0
0,4660,2780,-1,0,0
0,4661,19090,1,0,0
0,4662,17130,-1,0,0
0,4663,2810,-1,0,0
0,4664,4640,-1,0,0
0,4665,10350,-1,0,0
0,4666,15210,1,0,0
0,4667,15840,1,0,0
0,4668,1170,1,0,0
0,4669,9680,-1,0,0
0,4670,2320,1,0,0
0,4671,2390,-1,0,0
0,4672,2220,-1,0,0
0,4673,2160,1,0,0
0,4674,3320,1,0,0
0,4675,19900,-1,0,0
0,4676,7150,-1,0,0
0,4677,1140,-1,0,0
0,4678,4680,1,0,0
0,4679,4830,-1,0,0
0,4680,9890,-1,0,0
0,4681,1180,1,0,0
0,4682,1150,-1,0,0
0,4683,5600,-1,0,0
0,4684,6420,1,0,0
0,4685,13910,-1,0,0
0,4686,5640,1,0,0
0,4687,1610,1,0,0
0,4688,11800,1,0,0
0,4689,3790,1,0,0
0,4690,970,-1,0,0
0,4691,2130,-1,0,0
0,4692,1800,-1,0,0
0,4693,2750,1,0,0
0,4694,2460,1,0,0
0,4695,1810,-1,0,0
0,4696,4610,-1,0,0
0,4697,13160,1,0,0
0,4698,880,-1,0,0
0,4699,3660,-1,0,0
0,4700,5990,1,0,0
0,4701,4140,-1,0,0
0,4702,1860,-1,0,0
0,4703,2490,1,0,0
0,4704,1990,1,0,0
0,4705,580,-1,0,0
0,4706,4830,1,0,0
0,4707,1490,-1,0,0
0,4708,2110,-1,0,0
0,4709,8330,-1,0,0
0,4710,4010,1,0,0
0,4711,3550,1,0,0
0,4712,7930,1,0,0
0,4713,2280,1,0,0
0,4714,2480,-1,0,0
0,4715,10400,1,0,0
0,4716,12770,-1,0,0
0,4717,2140,1,0,0
0,4718,4360,-1,0,0
0,4719,1380,-1,0,0
0,4720,8410,1,0,0
0,4721,7260,1,0,0
0,4722,8560,1,0,0
0,4723,8340,1,0,0
0,4724,7930,1,0,0
0,4725,3450,-1,0,0
0,4726,1220,1,0,0
0,4727,5010,1,0,0
0,4728,6980,1,0,0
0,4729,2530,1,0,0
0,4730,840,1,0,0
0,4731,7960,1,0,0
0,4732,3140,-1,0,0
0,4733,7610,1,0,0
0,4734,1930,1,0,0
0,4735,5640,1,0,0
0,4736,1380,-1,0,0
0,4737,5130,-1,0,0
0,4738,7640,1,0,0
0,4739,11160,1,0,0
0,4740,1470,1,0,0
0,4741,380,-1,0,0
0,4742,3180,1,0,0
0,4743,5620,1,0,0
0,4744,6920,1,0,0
0,4745,2220,-1,0,0
0,4746,2020,1,0,0
0,4747,4310,1,0,0
0,4748,2140,1,0,0
0,4749,1680,-1,0,0
0,4750,7900,-1,0,0
0,4751,2180,1,0,0
0,4752,3580,-1,0,0
0,4753,2050,-1,0,0
0,4754,1480,1,0,0
0,4755,9220,1,0,0
0,4756,2890,-1,0,0
0,4757,11580,1,0,0
0,4758,740,-1,0,0
0,4759,2200,1,0,0
0,4760,29180,1,0,0
0,4761,1290,1,0,0
0,4762,2770,1,0,0
0,4763,660,1,0,0
0,4764,2940,-1,0,0
0,4765,12860,-1,0,0
0,4766,8590,1,0,0
0,4767,13960,1,0,0
0,4768,6780,1,0,0
0,4769,1770,-1,0,0
0,4770,8190,1,0,0
0,4771,2680,1,0,0
0,4772,4350,1,0,0
0,4773,4490,1,0,0
0,4774,2630,-1,0,0
0,4775,3860,1,0,0
0,4776,1060,1,0,0
0,4777,8180,1,0,0
0,4778,5160,-1,0,0
0,4779,2660,1,0,0
0,4780,3760,1,0,0
0,4781,1310,1,0,0
0,4782,4980,1,0,0
0,4783,760,-1,0,0
0,4784,600,1,0,0
0,4785,5070,1,0,0
0,4786,2570,1,0,0
0,4787,5010,1,0,0
0,4788,2620,1,0,0
0,4789,2690,1,0,0
0,4790,5380,1,0,0
0,4791,5790,1,0,0
0,4792,2770,-1,0,0
0,4793,14660,1,0,0
0,4794,8890,1,0,0
0,4795,6460,1,0,0
0,4796,2810,-1,0,0
0,4797,2790,1,0,0
0,4798,1470,1,0,0
0,4799,3270,-1,0,0
0,4800,2710,1,-1,0
0,4801,1510,-1,-1,0
0,4802,10790,1,-1,0
0,4803,3370,1,-1,0
0,4804,1830,1,-1,0
0,4805,1060,1,-1,0
0,4806,2540,1,-1,0
0,4807,6820,1,-1,0
0,4808,7010,1,-1,0
0,4809,12810,-1,-1,0
0,4810,4050,-1,-1,0
0,4811,14090,1,-1,0
0,4812,4950,-1,-1,0
0,4813,11140,1,-1,0
0,4814,3870,-1,-1,0
0,4815,2150,1,-1,0
0,4816,4710,-1,-1,0
0,4817,5140,1,-1,0
0,4818,15390,1,-1,0
0,4819,4680,-1,-1,0
0,4820,720,1,-1,0
0,4821,5140,-1,-1,0
0,4822,3260,1,-1,0
0,4823,3150,1,-1,0
0,4824,1690,1,-1,0
0,4825,2070,1,-1,0
0,4826,1120,1,-1,0
0,4827,2370,1,-1,0
0,4828,6910,1,-1,0
0,4829,6840,1,-1,0
0,4830,3740,-1,-1,0
0,4831,5300,1,-1,0
0,4832,860,1,-1,0
0,4833,2760,1,-1,0
0,4834,5980,1,-1,0
0,4835,5020,-1,-1,0
0,4836,1890,1,-1,0
0,4837,15350,-1,-1,0
0,4838,6010,1,-1,0
0,4839,2570,1,-1,0
0,4840,1630,1,-1,0
0,4841,4670,1,-1,0
0,4842,3610,1,-1,0
0,4843,4870,1,-1,0
0,4844,6220,1,-1,0
0,4845,3710,-1,-1,0
0,4846,9600,1,-1,0
0,4847,750,1,-1,0
0,4848,1720,-1,-1,0
0,4849,2660,1,-1,0
0,4850,7230,1,-1,0
0,4851,14150,1,-1,0
0,4852,9670,1,-1,0
0,4853,3610,-1,-1,0
0,4854,2820,1,-1,0
0,4855,7640,1,-1,0
0,4856,2120,1,-1,0
0,4857,900,1,-1,0
0,4858,1780,-1,-1,0
0,4859,1430,1,-1,0
0,4860,4590,1,-1,0
0,4861,8170,-1,-1,0
0,4862,1980,1,-1,0
0,4863,8420,1,-1,0
0,4864,5470,-1,-1,0
0,4865,1700,1,-1,0
0,4866,4820,1,-1,0
0,4867,6030,-1,-1,0
0,4868,3690,1,-1,0
0,4869,8560,-1,-1,0
0,4870,9890,1,-1,0
0,4871,3260,-1,-1,0
0,4872,2460,1,-1,0
0,4873,6490,1,-1,0
0,4874,3900,1,-1,0
0,4875,3020,-1,-1,0
0,4876,18340,1,-1,0
0,4877,10070,-1,-1,0
0,4878,4890,1,-1,0
0,4879,2540,-1,-1,0
0,4880,1340,1,-1,0
0,4881,31430,1,-1,0
0,4882,1970,1,-1,0
0,4883,1850,1,-1,0
0,4884,3600,-1,-1,0
0,4885,4770,1,-1,0
0,4886,1250,-1,-1,0
0,4887,4750,-1,-1,0
0,4888,1140,1,-1,0
0,4889,3510,1,-1,0
0,4890,1770,1,-1,0
0,4891,2400,1,-1,0
0,4892,1520,1,-1,0
0,4893,1980,1,-1,0
0,4894,1860,1,-1,0
0,4895,3690,1,-1,0
0,4896,680,-1,-1,0
0,4897,5020,-1,-1,0
0,4898,6540,1,-1,0
0,4899,1680,1,-1,0
0,4900,3530,1,-1,0
0,4901,3460,1,-1,0
0,4902,8890,1,-1,0
0,4903,1300,-1,-1,0
0,4904,4690,1,-1,0
0,4905,3330,1,-1,0
0,4906,3850,1,-1,0
0,4907,1190,-1,-1,0
0,4908,12160,1,-1,0
0,4909,2810,1,-1,0
0,4910,1250,1,-1,0
0,4911,8160,1,-1,0
0,4912,4530,1,-1,0
0,4913,13550,1,-1,0
0,4914,4230,1,-1,0
0,4915,4680,1,-1,0
0,4916,4760,1,-1,0
0,4917,1490,-1,-1,0
0,4918,13050,1,-1,0
0,4919,1000,1,-1,0
0,4920,5300,1,-1,0
0,4921,5490,1,-1,0
0,4922,720,-1,-1,0
0,4923,1390,1,-1,0
0,4924,1540,1,-1,0
0,4925,960,-1,-1,0
0,4926,4090,1,-1,0
0,4927,2710,-1,-1,0
0,4928,2700,1,-1,0
0,4929,1210,1,-1,0
0,4930,6080,-1,-1,0
0,4931,8220,1,-1,0
0,4932,4090,1,-1,0
0,4933,3220,1,-1,0
0,4934,3470,1,-1,0
0,4935,1190,1,-1,0
0,4936,9480,-1,-1,0
0,4937,1410,1,-1,0
0,4938,2550,1,-1,0
0,4939,2250,-1,-1,0
0,4940,3710,1,-1,0
0,4941,3730,1,-1,0
0,4942,7090,-1,-1,0
0,4943,1540,1,-1,0
0,4944,1920,-1,-1,0
0,4945,5830,-1,-1,0
0,4946,6940,1,-1,0
0,4947,1000,-1,-1,0
0,4948,2150,1,-1,0
0,4949,4100,1,-1,0
0,4950,2450,1,-1,0
0,4951,3000,1,-1,0
0,4952,1830,1,-1,0
0,4953,2360,1,-1,0
0,4954,4220,1,-1,0
0,4955,1570,1,-1,0
0,4956,7070,-1,-1,0
0,4957,4860,-1,-1,0
0,4958,5510,1,-1,0
0,4959,2310,1,-1,0
0,4960,1610,-1,-1,0
0,4961,1050,1,-1,0
0,4962,3790,1,-1,0
0,4963,1600,1,-1,0
0,4964,1240,1,-1,0
0,4965,2490,1,-1,0
0,4966,2360,-1,-1,0
0,4967,3930,-1,-1,0
0,4968,1460,1,-1,0
0,4969,10210,1,-1,0
0,4970,8020,1,-1,0
0,4971,870,1,-1,0
0,4972,800,1,-1,0
0,4973,13860,-1,-1,0
0,4974,2790,1,-1,0
0,4975,13250,1,-1,0
0,4976,3170,-1,-1,0
0,4977,2660,-1,-1,0
0,4978,4410,1,-1,0
0,4979,1070,-1,-1,0
0,4980,2050,-1,-1,0
0,4981,710,-1,-1,0
0,4982,4360,1,-1,0
0,4983,7110,1,-1,0
0,4984,2890,1,-1,0
0,4985,4870,1,-1,0
0,4986,500,1,-1,0
0,4987,7410,1,-1,0
0,4988,1850,1,-1,0
0,4989,12470,1,-1,0
0,4990,2020,1,-1,0
0,4991,1480,1,-1,0
0,4992,2900,1,-1,0
0,4993,3020,1,-1,0
0,4994,1640,1,-1,0
0,4995,2980,-1,-1,0
0,4996,3110,1,-1,0
0,4997,3560,1,-1,0
0,4998,11220,-1,-1,0
0,4999,12840,1,-1,0
0,5000,18150,1,-1,0
0,5001,3220,-1,-1,0
0,5002,3910,1,-1,0
0,5003,4730,1,-1,0
0,5004,1340,-1,-1,0
0,5005,5490,1,-1,0
0,5006,6900,-1,-1,0
0,5007,2760,-1,-1,0
0,5008,2140,1,-1,0
0,5009,1280,1,-1,0
0,5010,1060,1,-1,0
0,5011,5510,1,-1,0
0,5012,1230,-1,-1,0
0,5013,1490,1,-1,0
0,5014,2940,-1,-1,0
0,5015,4620,-1,-1,0
0,5016,1250,-1,-1,0
0,5017,2120,-1,-1,0
0,5018,3990,-1,-1,0
0,5019,12750,1,-1,0
0,5020,2820,-1,-1,0
0,5021,2730,1,-1,0
0,5022,2000,1,-1,0
0,5023,6000,1,-1,0
0,5024,2890,1,-1,0
0,5025,2620,-1,-1,0
0,5026,610,1,-1,0
0,5027,1150,-1,-1,0
0,5028,3860,1,-1,0
0,5029,2380,-1,-1,0
0,5030,2990,1,-1,0
0,5031,1530,1,-1,0
0,5032,2150,1,-1,0
0,5033,5780,-1,-1,0
0,5034,2080,1,-1,0
0,5035,2070,-1,-1,0
0,5036,1840,1,-1,0
0,5037,6140,-1,-1,0
0,5038,5370,1,-1,0
0,5039,3660,1,-1,0
0,5040,4660,1,-1,0
0,5041,1960,1,-1,0
0,5042,3140,1,-1,0
0,5043,1080,1,-1,0
0,5044,12660,-1,-1,0
0,5045,6930,-1,-1,0
0,5046,2950,1,-1,0
0,5047,1610,-1,-1,0
0,5048,2020,-1,-1,0
0,5049,3410,-1,-1,0
0,5050,3570,1,-1,0
0,5051,2470,-1,-1,0
0,5052,2230,1,-1,0
0,5053,3030,1,-1,0
0,5054,1570,-1,-1,0
0,5055,720,1,-1,0
0,5056,1750,1,-1,0
0,5057,19000,1,-1,0
0,5058,2470,1,-1,0
0,5059,4130,1,-1,0
0,5060,7740,1,-1,0
0,5061,6190,1,-1,0
0,5062,13620,1,-1,0
0,5063,5500,1,-1,0
0,5064,1900,1,-1,0
0,5065,5890,1,-1,0
0,5066,3540,-1,-1,0
0,5067,820,1,-1,0
0,5068,9250,1,-1,0
0,5069,2550,1,-1,0
0,5070,1760,1,-1,0
0,5071,3950,1,-1,0
0,5072,2760,1,-1,0
0,5073,2610,1,-1,0
0,5074,9240,1,-1,0
0,5075,19610,1,-1,0
0,5076,3590,1,-1,0
0,5077,2520,-1,-1,0
0,5078,580,1,-1,0
0,5079,5610,1,-1,0
0,5080,1410,-1,-1,0
0,5081,2940,1,-1,0
0,5082,1430,1,-1,0
0,5083,2160,1,-1,0
0,5084,2330,-1,-1,0
0,5085,1640,1,-1,0
0,5086,3510,1,-1,0
0,5087,2270,-1,-1,0
0,5088,1940,1,-1,0
0,5089,3870,1,-1,0
0,5090,1170,1,-1,0
0,5091,5760,1,-1,0
0,5092,8450,-1,-1,0
0,5093,2840,1,-1,0
0,5094,1860,1,-1,0
0,5095,9290,1,-1,0
0,5096,9430,1,-1,0
0,5097,3410,1,-1,0
0,5098,4010,1,-1,0
0,5099,3300,-1,-1,0
0,5100,4280,1,-1,0
0,5101,1540,1,-1,0
0,5102,2110,1,-1,0
0,5103,770,1,-1,0
0,5104,2340,1,-1,0
0,5105,2010,1,-1,0
0,5106,4250,1,-1,0
0,5107,370,1,-1,0
0,5108,1160,1,-1,0
0,5109,1530,1,-1,0
0,5110,3310,1,-1,0
0,5111,1360,1,-1,0
0,5112,1550,1,-1,0
0,5113,2100,1,-1,0
0,5114,2310,1,-1,0
0,5115,1480,-1,-1,0
0,5116,1270,1,-1,0
0,5117,7000,1,-1,0
0,5118,11240,-1,-1,0
0,5119,1890,1,-1,0
0,5120,3380,1,-1,0
0,5121,10150,-1,-1,0
0,5122,1930,-1,-1,0
0,5123,880,1,-1,0
0,5124,1120,-1,-1,0
0,5125,1910,-1,-1,0
0,5126,4240,1,-1,0
0,5127,8410,1,-1,0
0,5128,3180,-1,-1,0
0,5129,10750,1,-1,0
0,5130,1910,1,-1,0
0,5131,6210,-1,-1,0
0,5132,1140,1,-1,0
0,5133,8030,1,-1,0
0,5134,4630,1,-1,0
0,5135,3380,1,-1,0
0,5136,1900,1,-1,0
0,5137,2550,-1,-1,0
0,5138,5420,1,-1,0
0,5139,9000,1,-1,0
0,5140,1150,1,-1,0
0,5141,2490,-1,-1,0
0,5142,2220,-1,-1,0
0,5143,7160,1,-1,0
0,5144,3840,-1,-1,0
0,5145,3700,1,-1,0
0,5146,13660,1,-1,0
0,5147,880,-1,-1,0
0,5148,3730,-1,-1,0
0,5149,1410,-1,-1,0
0,5150,1000,1,-1,0
0,5151,4480,1,-1,0
0,5152,3460,1,-1,0
0,5153,5260,1,-1,0
0,5154,10830,1,-1,0
0,5155,1200,1,-1,0
0,5156,5240,1,-1,0
0,5157,1730,-1,-1,0
0,5158,6580,-1,-1,0
0,5159,6230,-1,-1,0
0,5160,2030,-1,-1,0
0,5161,2340,1,-1,0
0,5162,5260,1,-1,0
0,5163,1860,-1,-1,0
0,5164,3240,-1,-1,0
0,5165,3600,-1,-1,0
0,5166,1860,-1,-1,0
0,5167,3330,1,-1,0
0,5168,2210,1,-1,0
0,5169,5320,1,-1,0
0,5170,2600,1,-1,0
0,5171,3290,1,-1,0
0,5172,2670,1,-1,0
0,5173,3760,1,-1,0
0,5174,2270,-1,-1,0
0,5175,1080,1,-1,0
0,5176,3870,1,-1,0
0,5177,810,-1,-1,0
0,5178,12010,1,-1,0
0,5179,1020,1,-1,0
0,5180,1010,1,-1,0
0,5181,5380,-1,-1,0
0,5182,2350,1,-1,0
0,5183,4170,-1,-1,0
0,5184,1650,1,-1,0
0,5185,3020,1,-1,0
0,5186,3080,1,-1,0
0,5187,1480,1,-1,0
0,5188,710,-1,-1,0
0,5189,2320,-1,-1,0
0,5190,2310,1,-1,0
0,5191,10210,1,-1,0
0,5192,11540,1,-1,0
0,5193,1110,1,-1,0
0,5194,630,1,-1,0
0,5195,2280,-1,-1,0
0,5196,900,1,-1,0
0,5197,4580,-1,-1,0
0,5198,5900,-1,-1,0
0,5199,4820,1,-1,0
0,5200,870,1,-1,-1
0,5201,1370,-1,-1,-1
0,5202,1030,-1,-1,-1
0,5203,3350,1,-1,-1
0,5204,9550,1,-1,-1
0,5205,2550,1,-1,-1
0,5206,3860,1,-1,-1
0,5207,2000,-1,-1,-1
0,5208,5300,1,-1,-1
0,5209,1800,1,-1,-1
