parcode,trial,rt,choice,item_left,item_right
0,0,1440,1,1,1
0,1,1360,-1,1,1
0,2,2060,1,1,1
0,3,1200,1,1,1
0,4,7160,1,1,1
0,5,3150,1,1,1
0,6,4020,1,1,1
0,7,1310,1,1,1
0,8,470,1,1,1
0,9,730,1,1,1
0,10,720,1,1,1
0,11,2590,-1,1,1
0,12,1500,1,1,1
0,13,1660,1,1,1
0,14,4590,1,1,1
0,15,1150,1,1,1
0,16,1130,-1,1,1
0,17,4460,1,1,1
0,18,2000,1,1,1
0,19,1320,1,1,1
0,20,480,1,1,1
0,21,830,1,1,1
0,22,3810,1,1,1
0,23,2210,1,1,1
0,24,8390,-1,1,1
0,25,2480,1,1,1
0,26,1840,1,1,1
0,27,3830,1,1,1
0,28,3440,1,1,1
0,29,560,1,1,1
0,30,4380,1,1,1
0,31,5630,1,1,1
0,32,1810,1,1,1
0,33,2330,1,1,1
0,34,3950,1,1,1
0,35,770,1,1,1
0,36,11720,1,1,1
0,37,2910,1,1,1
0,38,1520,1,1,1
0,39,1010,1,1,1
0,40,4880,1,1,1
0,41,4750,1,1,1
0,42,2370,1,1,1
0,43,2900,1,1,1
0,44,1910,1,1,1
0,45,1990,1,1,1
0,46,3610,1,1,1
0,47,960,1,1,1
0,48,4150,1,1,1
0,49,1670,1,1,1
0,50,1820,1,1,1
0,51,1740,1,1,1
0,52,890,1,1,1
0,53,7000,1,1,1
0,54,2900,1,1,1
0,55,1020,-1,1,1
0,56,4380,1,1,1
0,57,1580,1,1,1
0,58,1320,1,1,1
0,59,2110,1,1,1
0,60,1260,1,1,1
0,61,2530,1,1,1
0,62,4310,1,1,1
0,63,5140,1,1,1
0,64,1520,1,1,1
0,65,2360,1,1,1
0,66,5970,1,1,1
0,67,2370,1,1,1
0,68,1490,1,1,1
0,69,5710,1,1,1
0,70,1220,1,1,1
0,71,5020,1,1,1
0,72,2640,1,1,1
0,73,3410,1,1,1
0,74,2220,1,1,1
0,75,4590,1,1,1
0,76,4460,1,1,1
0,77,5290,1,1,1
0,78,2940,1,1,1
0,79,5760,1,1,1
0,80,1220,1,1,1
0,81,980,1,1,1
0,82,2000,1,1,1
0,83,1200,1,1,1
0,84,7390,1,1,1
0,85,2390,1,1,1
0,86,3150,1,1,1
0,87,12520,1,1,1
0,88,2530,1,1,1
0,89,1720,1,1,1
0,90,1090,1,1,1
0,91,2400,-1,1,1
0,92,3400,1,1,1
0,93,14260,1,1,1
0,94,6960,1,1,1
0,95,4190,1,1,1
0,96,2130,1,1,1
0,97,2640,1,1,1
0,98,3320,1,1,1
0,99,6060,1,1,1
0,100,2030,-1,1,1
0,101,2510,-1,1,1
0,102,3470,1,1,1
0,103,8860,1,1,1
0,104,480,1,1,1
0,105,2080,1,1,1
0,106,5120,1,1,1
0,107,420,1,1,1
0,108,7250,1,1,1
0,109,3510,1,1,1
0,110,2650,1,1,1
0,111,3230,1,1,1
0,112,900,1,1,1
0,113,4030,-1,1,1
0,114,5180,1,1,1
0,115,2860,1,1,1
0,116,1660,1,1,1
0,117,3870,1,1,1
0,118,8700,1,1,1
0,119,2870,1,1,1
0,120,4930,1,1,1
0,121,3450,1,1,1
0,122,1080,1,1,1
0,123,2010,1,1,1
0,124,4640,1,1,1
0,125,580,1,1,1
0,126,3690,1,1,1
0,127,1720,1,1,1
0,128,1960,1,1,1
0,129,1150,-1,1,1
0,130,830,1,1,1
0,131,1140,1,1,1
0,132,2890,1,1,1
0,133,1390,1,1,1
0,134,2210,1,1,1
0,135,1300,1,1,1
0,136,3460,1,1,1
0,137,6620,1,1,1
0,138,4380,1,1,1
0,139,920,1,1,1
0,140,3940,1,1,1
0,141,3430,1,1,1
0,142,4110,1,1,1
0,143,1850,1,1,1
0,144,2430,1,1,1
0,145,3720,1,1,1
0,146,790,1,1,1
0,147,4950,-1,1,1
0,148,6380,1,1,1
0,149,2030,1,1,1
0,150,1010,1,1,1
0,151,1770,1,1,1
0,152,2280,-1,1,1
0,153,3610,-1,1,1
0,154,2290,1,1,1
0,155,1180,1,1,1
0,156,6060,1,1,1
0,157,1290,1,1,1
0,158,4150,1,1,1
0,159,1920,1,1,1
0,160,3420,1,1,1
0,161,4130,1,1,1
0,162,1500,1,1,1
0,163,2300,1,1,1
0,164,3850,1,1,1
0,165,2780,1,1,1
0,166,2830,1,1,1
0,167,1380,1,1,1
0,168,1860,1,1,1
0,169,990,1,1,1
0,170,3580,1,1,1
0,171,1260,1,1,1
0,172,1850,1,1,1
0,173,4960,1,1,1
0,174,8200,1,1,1
0,175,2410,1,1,1
0,176,6980,1,1,1
0,177,1570,-1,1,1
0,178,1950,1,1,1
0,179,640,1,1,1
0,180,2610,1,1,1
0,181,5360,1,1,1
0,182,4150,1,1,1
0,183,4740,1,1,1
0,184,650,1,1,1
0,185,1830,1,1,1
0,186,6850,1,1,1
0,187,5340,1,1,1
0,188,5090,1,1,1
0,189,1130,1,1,1
0,190,1100,1,1,1
0,191,3270,1,1,1
0,192,5200,1,1,1
0,193,7190,1,1,1
0,194,2080,1,1,1
0,195,1050,1,1,1
0,196,2520,1,1,1
0,197,4980,1,1,1
0,198,4840,1,1,1
0,199,620,1,1,1
0,200,3120,-1,1,1
0,201,1960,1,1,1
0,202,4920,1,1,1
0,203,6960,-1,1,1
0,204,760,1,1,1
0,205,4900,1,1,1
0,206,2460,1,1,1
0,207,3690,-1,1,1
0,208,2720,1,1,1
0,209,3010,1,1,1
0,210,4450,1,1,1
0,211,6320,-1,1,1
0,212,4010,1,1,1
0,213,550,1,1,1
0,214,2180,1,1,1
0,215,6580,1,1,1
0,216,6820,1,1,1
0,217,3070,-1,1,1
0,218,3780,1,1,1
0,219,7330,1,1,1
0,220,490,1,1,1
0,221,1050,1,1,1
0,222,6680,1,1,1
0,223,820,1,1,1
0,224,2570,1,1,1
0,225,4790,1,1,1
0,226,1480,1,1,1
0,227,8590,1,1,1
0,228,940,-1,1,1
0,229,1510,1,1,1
0,230,1200,-1,1,1
0,231,4500,1,1,1
0,232,1010,1,1,1
0,233,930,1,1,1
0,234,470,1,1,1
0,235,4910,1,1,1
0,236,1820,1,1,1
0,237,1660,1,1,1
0,238,1010,1,1,1
0,239,5500,1,1,1
0,240,1580,1,1,1
0,241,1900,1,1,1
0,242,2600,1,1,1
0,243,790,1,1,1
0,244,4650,1,1,1
0,245,540,1,1,1
0,246,5370,1,1,1
0,247,3210,1,1,1
0,248,2180,1,1,1
0,249,2920,-1,1,1
0,250,8320,1,1,1
0,251,3060,1,1,1
0,252,5610,1,1,1
0,253,2570,1,1,1
0,254,1870,1,1,1
0,255,2470,1,1,1
0,256,1360,1,1,1
0,257,1170,1,1,1
0,258,1340,1,1,1
0,259,3790,1,1,1
0,260,730,1,1,1
0,261,1070,1,1,1
0,262,1610,1,1,1
0,263,1220,1,1,1
0,264,2560,1,1,1
0,265,2980,1,1,1
0,266,6020,1,1,1
0,267,1680,1,1,1
0,268,3900,1,1,1
0,269,1030,1,1,1
0,270,3080,1,1,1
0,271,2090,1,1,1
0,272,940,1,1,1
0,273,1640,1,1,1
0,274,4890,1,1,1
0,275,4760,1,1,1
0,276,1500,1,1,1
0,277,3770,1,1,1
0,278,9230,1,1,1
0,279,2050,1,1,1
0,280,850,1,1,1
0,281,3670,1,1,1
0,282,7640,1,1,1
0,283,1250,1,1,1
0,284,2520,1,1,1
0,285,4190,1,1,1
0,286,2740,1,1,1
0,287,2770,1,1,1
0,288,650,-1,1,1
0,289,840,-1,1,1
0,290,2870,1,1,1
0,291,5630,1,1,1
0,292,740,1,1,1
0,293,3400,1,1,1
0,294,1440,1,1,1
0,295,650,1,1,1
0,296,1460,1,1,1
0,297,840,1,1,1
0,298,330,1,1,1
0,299,1920,1,1,1
0,300,5650,1,1,1
0,301,10010,1,1,1
0,302,1740,1,1,1
0,303,6440,1,1,1
0,304,6680,1,1,1
0,305,1180,1,1,1
0,306,1370,1,1,1
0,307,2390,1,1,1
0,308,2210,1,1,1
0,309,1170,1,1,1
0,310,6940,1,1,1
0,311,3660,1,1,1
0,312,1310,1,1,1
0,313,2480,1,1,1
0,314,1110,-1,1,1
0,315,6300,1,1,1
0,316,2130,1,1,1
0,317,3370,-1,1,1
0,318,2960,1,1,1
0,319,3470,1,1,1
0,320,1880,1,1,1
0,321,5770,1,1,1
0,322,1560,1,1,1
0,323,5700,1,1,1
0,324,2080,1,1,1
0,325,4800,1,1,1
0,326,6590,1,1,1
0,327,2520,1,1,1
0,328,6420,1,1,1
0,329,4350,1,1,1
0,330,1950,1,1,1
0,331,10100,1,1,1
0,332,590,1,1,1
0,333,3000,1,1,1
0,334,460,1,1,1
0,335,1570,1,1,1
0,336,1680,1,1,1
0,337,7020,1,1,1
0,338,4030,-1,1,1
0,339,840,1,1,1
0,340,4860,1,1,1
0,341,1990,1,1,1
0,342,2690,1,1,1
0,343,1760,1,1,1
0,344,4480,1,1,1
0,345,780,1,1,1
0,346,2100,1,1,1
0,347,4490,1,1,1
0,348,1670,1,1,1
0,349,1910,1,1,1
0,350,410,1,1,1
0,351,2370,1,1,1
0,352,2290,-1,1,1
0,353,2400,1,1,1
0,354,1870,1,1,1
0,355,2750,1,1,1
0,356,3240,1,1,1
0,357,2100,-1,1,1
0,358,4340,1,1,1
0,359,3430,1,1,1
0,360,940,1,1,1
0,361,610,1,1,1
0,362,4530,1,1,1
0,363,1520,1,1,1
0,364,1130,-1,1,1
0,365,2740,-1,1,1
0,366,5680,1,1,1
0,367,5130,-1,1,1
0,368,720,1,1,1
0,369,4450,-1,1,1
0,370,1720,1,1,1
0,371,6480,1,1,1
0,372,2090,1,1,1
0,373,2080,1,1,1
0,374,1580,1,1,1
0,375,970,1,1,1
0,376,1800,1,1,1
0,377,1110,1,1,1
0,378,4180,1,1,1
0,379,1730,1,1,1
0,380,3720,1,1,1
0,381,1040,1,1,1
0,382,2640,1,1,1
0,383,1990,-1,1,1
0,384,4380,1,1,1
0,385,3180,1,1,1
0,386,2530,1,1,1
0,387,1340,1,1,1
0,388,1260,1,1,1
0,389,2490,1,1,1
0,390,2260,1,1,1
0,391,2740,1,1,1
0,392,2920,1,1,1
0,393,1050,1,1,1
0,394,1930,1,1,1
0,395,520,1,1,1
0,396,2960,1,1,1
0,397,3430,1,1,1
0,398,3830,1,1,1
0,399,1670,1,1,1
0,400,3700,1,-1,-1
0,401,3950,1,-1,-1
0,402,3460,-1,-1,-1
0,403,4440,1,-1,-1
0,404,1230,-1,-1,-1
0,405,10030,1,-1,-1
0,406,830,-1,-1,-1
0,407,4950,-1,-1,-1
0,408,2780,1,-1,-1
0,409,4020,1,-1,-1
0,410,14370,1,-1,-1
0,411,2410,-1,-1,-1
0,412,7680,-1,-1,-1
0,413,630,-1,-1,-1
0,414,1620,1,-1,-1
0,415,3820,1,-1,-1
0,416,3900,1,-1,-1
0,417,3480,1,-1,-1
0,418,1180,1,-1,-1
0,419,1720,1,-1,-1
0,420,2340,-1,-1,-1
0,421,2130,-1,-1,-1
0,422,7790,1,-1,-1
0,423,1830,-1,-1,-1
0,424,2190,-1,-1,-1
0,425,8660,-1,-1,-1
0,426,3450,1,-1,-1
0,427,2680,1,-1,-1
0,428,2630,-1,-1,-1
0,429,3530,1,-1,-1
0,430,2080,-1,-1,-1
0,431,1960,1,-1,-1
0,432,12050,-1,-1,-1
0,433,2080,-1,-1,-1
0,434,10430,-1,-1,-1
0,435,7460,1,-1,-1
0,436,7450,1,-1,-1
0,437,4270,1,-1,-1
0,438,4170,-1,-1,-1
0,439,2090,-1,-1,-1
0,440,7980,1,-1,-1
0,441,7000,-1,-1,-1
0,442,3190,1,-1,-1
0,443,5960,1,-1,-1
0,444,8370,1,-1,-1
0,445,1060,-1,-1,-1
0,446,6330,1,-1,-1
0,447,9760,1,-1,-1
0,448,1960,1,-1,-1
0,449,2950,1,-1,-1
0,450,14700,-1,-1,-1
0,451,1420,1,-1,-1
0,452,2990,-1,-1,-1
0,453,2270,1,-1,-1
0,454,2250,-1,-1,-1
0,455,2470,-1,-1,-1
0,456,1650,1,-1,-1
0,457,1780,1,-1,-1
0,458,930,-1,-1,-1
0,459,6690,1,-1,-1
0,460,2610,1,-1,-1
0,461,3860,1,-1,-1
0,462,1610,-1,-1,-1
0,463,880,-1,-1,-1
0,464,3220,1,-1,-1
0,465,6390,1,-1,-1
0,466,1600,-1,-1,-1
0,467,4020,1,-1,-1
0,468,2190,1,-1,-1
0,469,510,-1,-1,-1
0,470,1010,1,-1,-1
0,471,3040,1,-1,-1
0,472,5240,-1,-1,-1
0,473,3500,-1,-1,-1
0,474,11660,1,-1,-1
0,475,860,-1,-1,-1
0,476,5040,1,-1,-1
0,477,1720,1,-1,-1
0,478,3230,1,-1,-1
0,479,7020,-1,-1,-1
0,480,1160,1,-1,-1
0,481,7480,1,-1,-1
0,482,1570,1,-1,-1
0,483,5640,-1,-1,-1
0,484,4600,-1,-1,-1
0,485,4620,-1,-1,-1
0,486,1600,-1,-1,-1
0,487,1860,1,-1,-1
0,488,11640,1,-1,-1
0,489,5860,-1,-1,-1
0,490,5190,-1,-1,-1
0,491,4240,1,-1,-1
0,492,4100,1,-1,-1
0,493,3790,-1,-1,-1
0,494,5610,1,-1,-1
0,495,2700,-1,-1,-1
0,496,3180,1,-1,-1
0,497,4440,-1,-1,-1
0,498,11450,-1,-1,-1
0,499,4510,-1,-1,-1
0,500,4570,1,-1,-1
0,501,5620,-1,-1,-1
0,502,790,-1,-1,-1
0,503,5270,1,-1,-1
0,504,2330,-1,-1,-1
0,505,1270,1,-1,-1
0,506,370,1,-1,-1
0,507,12660,-1,-1,-1
0,508,1610,1,-1,-1
0,509,680,1,-1,-1
0,510,10250,-1,-1,-1
0,511,3210,1,-1,-1
0,512,4320,1,-1,-1
0,513,1100,1,-1,-1
0,514,3880,-1,-1,-1
0,515,8380,1,-1,-1
0,516,1950,1,-1,-1
0,517,3320,1,-1,-1
0,518,3130,1,-1,-1
0,519,2210,-1,-1,-1
0,520,3200,-1,-1,-1
0,521,5500,1,-1,-1
0,522,2010,1,-1,-1
0,523,1630,1,-1,-1
0,524,18510,-1,-1,-1
0,525,4730,1,-1,-1
0,526,8000,-1,-1,-1
0,527,1280,-1,-1,-1
0,528,4910,1,-1,-1
0,529,740,1,-1,-1
0,530,1980,1,-1,-1
0,531,3930,-1,-1,-1
0,532,5820,-1,-1,-1
0,533,430,1,-1,-1
0,534,5180,1,-1,-1
0,535,5810,1,-1,-1
0,536,3940,1,-1,-1
0,537,3410,1,-1,-1
0,538,5480,1,-1,-1
0,539,1010,-1,-1,-1
0,540,3450,1,-1,-1
0,541,15130,1,-1,-1
0,542,2600,1,-1,-1
0,543,8280,1,-1,-1
0,544,4460,1,-1,-1
0,545,3460,1,-1,-1
0,546,2400,-1,-1,-1
0,547,6460,-1,-1,-1
0,548,1930,1,-1,-1
0,549,6840,-1,-1,-1
0,550,1840,-1,-1,-1
0,551,5510,-1,-1,-1
0,552,400,1,-1,-1
0,553,2410,1,-1,-1
0,554,880,-1,-1,-1
0,555,9980,1,-1,-1
0,556,3110,1,-1,-1
0,557,6260,1,-1,-1
0,558,2350,1,-1,-1
0,559,3900,-1,-1,-1
0,560,9520,1,-1,-1
0,561,950,1,-1,-1
0,562,11560,1,-1,-1
0,563,4690,1,-1,-1
0,564,470,-1,-1,-1
0,565,1790,-1,-1,-1
0,566,8690,-1,-1,-1
0,567,2200,-1,-1,-1
0,568,2850,1,-1,-1
0,569,2860,-1,-1,-1
0,570,2270,1,-1,-1
0,571,1740,1,-1,-1
0,572,4520,1,-1,-1
0,573,3370,1,-1,-1
0,574,1920,-1,-1,-1
0,575,5300,-1,-1,-1
0,576,8160,-1,-1,-1
0,577,1070,-1,-1,-1
0,578,3720,-1,-1,-1
0,579,2490,1,-1,-1
0,580,2760,1,-1,-1
0,581,1670,1,-1,-1
0,582,5110,-1,-1,-1
0,583,940,1,-1,-1
0,584,11450,-1,-1,-1
0,585,4550,-1,-1,-1
0,586,1640,1,-1,-1
0,587,5790,1,-1,-1
0,588,2020,1,-1,-1
0,589,1700,-1,-1,-1
0,590,2770,-1,-1,-1
0,591,810,-1,-1,-1
0,592,8620,1,-1,-1
0,593,3180,1,-1,-1
0,594,1640,-1,-1,-1
0,595,4200,1,-1,-1
0,596,2550,1,-1,-1
0,597,1820,1,-1,-1
0,598,7290,1,-1,-1
0,599,11490,1,-1,-1
0,600,1250,1,-1,-1
0,601,1910,-1,-1,-1
0,602,1560,-1,-1,-1
0,603,6190,1,-1,-1
0,604,630,-1,-1,-1
0,605,870,1,-1,-1
0,606,1080,1,-1,-1
0,607,1990,-1,-1,-1
0,608,1410,1,-1,-1
0,609,12760,-1,-1,-1
0,610,2140,1,-1,-1
0,611,1410,-1,-1,-1
0,612,3390,1,-1,-1
0,613,2130,1,-1,-1
0,614,1560,-1,-1,-1
0,615,2870,-1,-1,-1
0,616,15620,1,-1,-1
0,617,4380,-1,-1,-1
0,618,5150,1,-1,-1
0,619,3530,-1,-1,-1
0,620,8090,1,-1,-1
0,621,3380,1,-1,-1
0,622,19750,1,-1,-1
0,623,3320,-1,-1,-1
0,624,960,-1,-1,-1
0,625,1130,1,-1,-1
0,626,640,-1,-1,-1
0,627,4180,1,-1,-1
0,628,2190,-1,-1,-1
0,629,6870,1,-1,-1
0,630,6450,-1,-1,-1
0,631,960,1,-1,-1
0,632,7050,-1,-1,-1
0,633,2530,-1,-1,-1
0,634,2490,-1,-1,-1
0,635,5460,1,-1,-1
0,636,2750,1,-1,-1
0,637,5090,-1,-1,-1
0,638,3160,-1,-1,-1
0,639,2250,-1,-1,-1
0,640,3930,1,-1,-1
0,641,1010,1,-1,-1
0,642,1900,-1,-1,-1
0,643,3210,-1,-1,-1
0,644,6220,-1,-1,-1
0,645,4910,1,-1,-1
0,646,12430,1,-1,-1
0,647,1490,1,-1,-1
0,648,1000,-1,-1,-1
0,649,1490,-1,-1,-1
0,650,760,1,-1,-1
0,651,3850,-1,-1,-1
0,652,4830,1,-1,-1
0,653,1050,1,-1,-1
0,654,9310,-1,-1,-1
0,655,13430,1,-1,-1
0,656,4410,1,-1,-1
0,657,3760,1,-1,-1
0,658,1470,1,-1,-1
0,659,2850,1,-1,-1
0,660,3240,1,-1,-1
0,661,620,1,-1,-1
0,662,5610,-1,-1,-1
0,663,1660,1,-1,-1
0,664,5270,1,-1,-1
0,665,3560,-1,-1,-1
0,666,12340,1,-1,-1
0,667,1040,1,-1,-1
0,668,2420,1,-1,-1
0,669,3150,1,-1,-1
0,670,3110,1,-1,-1
0,671,2030,1,-1,-1
0,672,2430,1,-1,-1
0,673,1580,-1,-1,-1
0,674,3530,1,-1,-1
0,675,4070,1,-1,-1
0,676,1810,-1,-1,-1
0,677,980,-1,-1,-1
0,678,5010,-1,-1,-1
0,679,620,1,-1,-1
0,680,5530,1,-1,-1
0,681,2140,-1,-1,-1
0,682,4570,1,-1,-1
0,683,5460,-1,-1,-1
0,684,2650,-1,-1,-1
0,685,2910,1,-1,-1
0,686,10350,1,-1,-1
0,687,1760,1,-1,-1
0,688,3550,-1,-1,-1
0,689,1250,-1,-1,-1
0,690,5030,1,-1,-1
0,691,1560,-1,-1,-1
0,692,1910,1,-1,-1
0,693,1610,-1,-1,-1
0,694,9760,-1,-1,-1
0,695,840,-1,-1,-1
0,696,2920,-1,-1,-1
0,697,4140,1,-1,-1
0,698,1310,1,-1,-1
0,699,2170,1,-1,-1
0,700,3530,-1,-1,-1
0,701,870,1,-1,-1
0,702,5150,1,-1,-1
0,703,3310,1,-1,-1
0,704,8150,-1,-1,-1
0,705,1720,1,-1,-1
0,706,3650,1,-1,-1
0,707,4550,-1,-1,-1
0,708,5680,-1,-1,-1
0,709,2660,-1,-1,-1
0,710,1570,1,-1,-1
0,711,8430,1,-1,-1
0,712,3910,-1,-1,-1
0,713,3560,1,-1,-1
0,714,2540,1,-1,-1
0,715,2630,1,-1,-1
0,716,8770,-1,-1,-1
0,717,2340,1,-1,-1
0,718,1780,1,-1,-1
0,719,4980,1,-1,-1
0,720,3940,-1,-1,-1
0,721,12210,-1,-1,-1
0,722,1540,1,-1,-1
0,723,1200,-1,-1,-1
0,724,820,-1,-1,-1
0,725,1990,1,-1,-1
0,726,3320,1,-1,-1
0,727,3090,1,-1,-1
0,728,2720,1,-1,-1
0,729,530,-1,-1,-1
0,730,4200,1,-1,-1
0,731,6120,-1,-1,-1
0,732,5460,1,-1,-1
0,733,6430,1,-1,-1
0,734,3380,1,-1,-1
0,735,7210,1,-1,-1
0,736,1120,-1,-1,-1
0,737,3040,1,-1,-1
0,738,1980,1,-1,-1
0,739,1420,1,-1,-1
0,740,2250,-1,-1,-1
0,741,650,-1,-1,-1
0,742,1050,1,-1,-1
0,743,6400,-1,-1,-1
0,744,1810,-1,-1,-1
0,745,5150,1,-1,-1
0,746,11370,-1,-1,-1
0,747,680,1,-1,-1
0,748,2590,-1,-1,-1
0,749,640,1,-1,-1
0,750,6090,1,-1,-1
0,751,17580,-1,-1,-1
0,752,510,1,-1,-1
0,753,2780,1,-1,-1
0,754,740,-1,-1,-1
0,755,1380,1,-1,-1
0,756,3010,-1,-1,-1
0,757,1910,-1,-1,-1
0,758,2320,1,-1,-1
0,759,290,1,-1,-1
0,760,2370,-1,-1,-1
0,761,4340,1,-1,-1
0,762,11730,1,-1,-1
0,763,1960,1,-1,-1
0,764,11230,1,-1,-1
0,765,2560,1,-1,-1
0,766,3220,1,-1,-1
0,767,2920,1,-1,-1
0,768,2750,1,-1,-1
0,769,5040,-1,-1,-1
0,770,8260,-1,-1,-1
0,771,1700,1,-1,-1
0,772,9640,1,-1,-1
0,773,17770,1,-1,-1
0,774,2000,1,-1,-1
0,775,610,1,-1,-1
0,776,2660,-1,-1,-1
0,777,7550,1,-1,-1
0,778,3250,-1,-1,-1
0,779,6620,1,-1,-1
0,780,4600,-1,-1,-1
0,781,12030,1,-1,-1
0,782,11770,1,-1,-1
0,783,4340,1,-1,-1
0,784,880,1,-1,-1
0,785,1510,1,-1,-1
0,786,11080,1,-1,-1
0,787,8630,1,-1,-1
0,788,4420,-1,-1,-1
0,789,1840,-1,-1,-1
0,790,1530,1,-1,-1
0,791,1730,-1,-1,-1
0,792,1610,-1,-1,-1
0,793,5630,-1,-1,-1
0,794,1530,1,-1,-1
0,795,6330,-1,-1,-1
0,796,6580,-1,-1,-1
0,797,1020,1,-1,-1
0,798,3430,-1,-1,-1
0,799,3850,1,-1,-1
0,800,920,-1,-1,-1
0,801,2860,1,-1,-1
0,802,4030,-1,-1,-1
0,803,2630,-1,-1,-1
0,804,1970,-1,-1,-1
0,805,4170,-1,-1,-1
0,806,720,-1,-1,-1
0,807,7830,-1,-1,-1
0,808,1340,-1,-1,-1
0,809,1830,-1,-1,-1
0,810,5210,-1,-1,-1
0,811,5450,-1,-1,-1
0,812,2280,-1,-1,-1
0,813,7740,-1,-1,-1
0,814,730,1,-1,-1
0,815,7040,-1,-1,-1
0,816,2560,-1,-1,-1
0,817,640,-1,-1,-1
0,818,3540,-1,-1,-1
0,819,1820,-1,-1,-1
0,820,5160,-1,-1,-1
0,821,3070,-1,-1,-1
0,822,3630,-1,-1,-1
0,823,760,-1,-1,-1
0,824,3710,1,-1,-1
0,825,4970,-1,-1,-1
0,826,5640,1,-1,-1
0,827,460,1,-1,-1
0,828,1320,1,-1,-1
0,829,780,-1,-1,-1
0,830,4510,-1,-1,-1
0,831,710,-1,-1,-1
0,832,3250,1,-1,-1
0,833,3810,1,-1,-1
0,834,2740,1,-1,-1
0,835,11340,-1,-1,-1
0,836,3020,-1,-1,-1
0,837,2130,1,-1,-1
0,838,5850,-1,-1,-1
0,839,6770,-1,-1,-1
0,840,2970,-1,-1,-1
0,841,1000,-1,-1,-1
0,842,2350,1,-1,-1
0,843,1140,1,-1,-1
0,844,1440,-1,-1,-1
0,845,1550,1,-1,-1
0,846,4550,-1,-1,-1
0,847,1410,1,-1,-1
0,848,2490,-1,-1,-1
0,849,5380,-1,-1,-1
0,850,2820,-1,-1,-1
0,851,11850,-1,-1,-1
0,852,5240,-1,-1,-1
0,853,3110,1,-1,-1
0,854,6120,1,-1,-1
0,855,6080,-1,-1,-1
0,856,4540,1,-1,-1
0,857,1020,-1,-1,-1
0,858,630,-1,-1,-1
0,859,1320,-1,-1,-1
0,860,4070,1,-1,-1
0,861,1380,-1,-1,-1
0,862,10350,1,-1,-1
0,863,5730,1,-1,-1
0,864,3840,-1,-1,-1
0,865,8110,-1,-1,-1
0,866,7750,-1,-1,-1
0,867,34240,-1,-1,-1
0,868,4620,1,-1,-1
0,869,2670,-1,-1,-1
0,870,2470,-1,-1,-1
0,871,1680,1,-1,-1
0,872,5110,-1,-1,-1
0,873,1530,1,-1,-1
0,874,2350,1,-1,-1
0,875,9680,1,-1,-1
0,876,5960,-1,-1,-1
0,877,5620,-1,-1,-1
0,878,900,-1,-1,-1
0,879,3530,-1,-1,-1
0,880,5110,-1,-1,-1
0,881,1200,-1,-1,-1
0,882,1290,-1,-1,-1
0,883,6460,-1,-1,-1
0,884,3570,1,-1,-1
0,885,4220,-1,-1,-1
0,886,8410,1,-1,-1
0,887,3620,-1,-1,-1
0,888,3490,1,-1,-1
0,889,880,-1,-1,-1
0,890,3410,1,-1,-1
0,891,3490,-1,-1,-1
0,892,1870,-1,-1,-1
0,893,3710,-1,-1,-1
0,894,4990,1,-1,-1
0,895,13080,-1,-1,-1
0,896,5150,-1,-1,-1
0,897,2790,1,-1,-1
0,898,4050,1,-1,-1
0,899,4240,-1,-1,-1
0,900,1690,1,-1,-1
0,901,5710,1,-1,-1
0,902,1850,1,-1,-1
0,903,5790,-1,-1,-1
0,904,4220,1,-1,-1
0,905,1770,1,-1,-1
0,906,580,-1,-1,-1
0,907,15450,-1,-1,-1
0,908,5490,1,-1,-1
0,909,610,-1,-1,-1
0,910,1850,-1,-1,-1
0,911,9580,1,-1,-1
0,912,1510,-1,-1,-1
0,913,860,1,-1,-1
0,914,9430,1,-1,-1
0,915,3440,-1,-1,-1
0,916,3940,-1,-1,-1
0,917,6540,-1,-1,-1
0,918,3670,-1,-1,-1
0,919,6180,-1,-1,-1
0,920,2610,-1,-1,-1
0,921,8000,1,-1,-1
0,922,2950,-1,-1,-1
0,923,1330,-1,-1,-1
0,924,4450,-1,-1,-1
0,925,3190,-1,-1,-1
0,926,2150,-1,-1,-1
0,927,1550,-1,-1,-1
0,928,8680,-1,-1,-1
0,929,4910,-1,-1,-1
0,930,5200,1,-1,-1
0,931,4160,-1,-1,-1
0,932,10740,1,-1,-1
0,933,1500,-1,-1,-1
0,934,1090,1,-1,-1
0,935,1280,-1,-1,-1
0,936,1340,-1,-1,-1
0,937,1590,1,-1,-1
0,938,6500,1,-1,-1
0,939,3350,-1,-1,-1
0,940,3270,-1,-1,-1
0,941,7940,-1,-1,-1
0,942,2350,-1,-1,-1
0,943,6470,1,-1,-1
0,944,6630,-1,-1,-1
0,945,3030,1,-1,-1
0,946,3020,-1,-1,-1
0,947,5090,1,-1,-1
0,948,2250,-1,-1,-1
0,949,4510,1,-1,-1
0,950,5590,-1,-1,-1
0,951,790,1,-1,-1
0,952,3230,-1,-1,-1
0,953,1170,-1,-1,-1
0,954,4870,-1,-1,-1
0,955,9750,1,-1,-1
0,956,8430,-1,-1,-1
0,957,3100,-1,-1,-1
0,958,730,-1,-1,-1
0,959,4580,1,-1,-1
0,960,1890,-1,-1,-1
0,961,4040,1,-1,-1
0,962,1150,1,-1,-1
0,963,5530,-1,-1,-1
0,964,2810,1,-1,-1
0,965,2860,1,-1,-1
0,966,2130,-1,-1,-1
0,967,3700,1,-1,-1
0,968,1720,-1,-1,-1
0,969,3040,1,-1,-1
0,970,1520,-1,-1,-1
0,971,2550,1,-1,-1
0,972,10730,-1,-1,-1
0,973,2910,-1,-1,-1
0,974,4950,1,-1,-1
0,975,2460,1,-1,-1
0,976,3490,-1,-1,-1
0,977,1280,-1,-1,-1
0,978,7130,-1,-1,-1
0,979,3420,1,-1,-1
0,980,16990,1,-1,-1
0,981,1190,1,-1,-1
0,982,1780,-1,-1,-1
0,983,3610,1,-1,-1
0,984,1220,-1,-1,-1
0,985,1600,-1,-1,-1
0,986,1730,1,-1,-1
0,987,530,-1,-1,-1
0,988,2050,1,-1,-1
0,989,5580,-1,-1,-1
0,990,2270,-1,-1,-1
0,991,1760,-1,-1,-1
0,992,2730,1,-1,-1
0,993,1540,-1,-1,-1
0,994,3710,-1,-1,-1
0,995,780,-1,-1,-1
0,996,5790,-1,-1,-1
0,997,2360,-1,-1,-1
0,998,10320,1,-1,-1
0,999,4120,-1,-1,-1
0,1000,11760,1,-1,-1
0,1001,1700,-1,-1,-1
0,1002,2570,-1,-1,-1
0,1003,4330,1,-1,-1
0,1004,2820,1,-1,-1
0,1005,4030,1,-1,-1
0,1006,1150,-1,-1,-1
0,1007,1240,-1,-1,-1
0,1008,3170,-1,-1,-1
0,1009,4170,-1,-1,-1
0,1010,8870,1,-1,-1
0,1011,5230,-1,-1,-1
0,1012,11090,-1,-1,-1
0,1013,1220,-1,-1,-1
0,1014,3650,1,-1,-1
0,1015,1630,-1,-1,-1
0,1016,3560,-1,-1,-1
0,1017,1190,-1,-1,-1
0,1018,840,-1,-1,-1
0,1019,2530,-1,-1,-1
0,1020,1470,1,-1,-1
0,1021,6370,-1,-1,-1
0,1022,5330,1,-1,-1
0,1023,3820,-1,-1,-1
0,1024,3660,1,-1,-1
0,1025,1550,1,-1,-1
0,1026,3240,-1,-1,-1
0,1027,2130,-1,-1,-1
0,1028,1540,-1,-1,-1
0,1029,7550,1,-1,-1
0,1030,1750,-1,-1,-1
0,1031,2120,-1,-1,-1
0,1032,2380,-1,-1,-1
0,1033,3170,-1,-1,-1
0,1034,970,1,-1,-1
0,1035,5720,-1,-1,-1
0,1036,2120,-1,-1,-1
0,1037,4660,-1,-1,-1
0,1038,8400,-1,-1,-1
0,1039,1300,1,-1,-1
0,1040,1240,-1,-1,-1
0,1041,3500,-1,-1,-1
0,1042,920,1,-1,-1
0,1043,2930,1,-1,-1
0,1044,7450,1,-1,-1
0,1045,6050,-1,-1,-1
0,1046,2720,-1,-1,-1
0,1047,1400,-1,-1,-1
0,1048,2330,-1,-1,-1
0,1049,260,1,-1,-1
0,1050,4180,-1,-1,-1
0,1051,1480,1,-1,-1
0,1052,680,-1,-1,-1
0,1053,3640,1,-1,-1
0,1054,1930,-1,-1,-1
0,1055,2180,-1,-1,-1
0,1056,5170,-1,-1,-1
0,1057,410,-1,-1,-1
0,1058,3570,-1,-1,-1
0,1059,3860,1,-1,-1
0,1060,3220,1,-1,-1
0,1061,2510,-1,-1,-1
0,1062,5200,-1,-1,-1
0,1063,7460,1,-1,-1
0,1064,3780,1,-1,-1
0,1065,3540,-1,-1,-1
0,1066,4330,-1,-1,-1
0,1067,5220,-1,-1,-1
0,1068,1870,-1,-1,-1
0,1069,1580,1,-1,-1
0,1070,2390,1,-1,-1
0,1071,5520,-1,-1,-1
0,1072,2120,-1,-1,-1
0,1073,2430,-1,-1,-1
0,1074,4030,-1,-1,-1
0,1075,6440,1,-1,-1
0,1076,2650,1,-1,-1
0,1077,9410,-1,-1,-1
0,1078,4220,-1,-1,-1
0,1079,2800,1,-1,-1
0,1080,1590,-1,-1,-1
0,1081,1700,-1,-1,-1
0,1082,1120,-1,-1,-1
0,1083,5050,-1,-1,-1
0,1084,790,1,-1,-1
0,1085,8430,-1,-1,-1
0,1086,5950,-1,-1,-1
0,1087,4270,1,-1,-1
0,1088,1630,-1,-1,-1
0,1089,7550,-1,-1,-1
0,1090,3280,-1,-1,-1
0,1091,1110,-1,-1,-1
0,1092,3660,-1,-1,-1
0,1093,3260,-1,-1,-1
0,1094,10110,1,-1,-1
0,1095,3960,-1,-1,-1
0,1096,3910,1,-1,-1
0,1097,2060,1,-1,-1
0,1098,1550,-1,-1,-1
0,1099,1440,-1,-1,-1
0,1100,1900,-1,-1,-1
0,1101,4670,-1,-1,-1
0,1102,6310,1,-1,-1
0,1103,6590,-1,-1,-1
0,1104,6620,-1,-1,-1
0,1105,4400,-1,-1,-1
0,1106,3740,-1,-1,-1
0,1107,430,-1,-1,-1
0,1108,5490,-1,-1,-1
0,1109,4270,-1,-1,-1
0,1110,1630,-1,-1,-1
0,1111,5030,-1,-1,-1
0,1112,4960,1,-1,-1
0,1113,680,1,-1,-1
0,1114,1670,1,-1,-1
0,1115,6490,-1,-1,-1
0,1116,7890,-1,-1,-1
0,1117,7720,-1,-1,-1
0,1118,3050,-1,-1,-1
0,1119,1530,-1,-1,-1
0,1120,12130,1,-1,-1
0,1121,690,-1,-1,-1
0,1122,2100,-1,-1,-1
0,1123,1180,1,-1,-1
0,1124,1420,-1,-1,-1
0,1125,870,-1,-1,-1
0,1126,830,-1,-1,-1
0,1127,5810,-1,-1,-1
0,1128,1250,-1,-1,-1
0,1129,3650,1,-1,-1
0,1130,8760,-1,-1,-1
0,1131,3130,-1,-1,-1
0,1132,7730,-1,-1,-1
0,1133,7400,-1,-1,-1
0,1134,7060,-1,-1,-1
0,1135,970,-1,-1,-1
0,1136,3060,1,-1,-1
0,1137,9940,1,-1,-1
0,1138,10330,-1,-1,-1
0,1139,4120,-1,-1,-1
0,1140,1410,-1,-1,-1
0,1141,6470,-1,-1,-1
0,1142,1090,1,-1,-1
0,1143,4780,-1,-1,-1
0,1144,1180,-1,-1,-1
0,1145,570,-1,-1,-1
0,1146,1610,1,-1,-1
0,1147,2120,1,-1,-1
0,1148,1170,-1,-1,-1
0,1149,5320,1,-1,-1
0,1150,1610,-1,-1,-1
0,1151,6010,-1,-1,-1
0,1152,2040,-1,-1,-1
0,1153,1060,-1,-1,-1
0,1154,1490,-1,-1,-1
0,1155,10280,-1,-1,-1
0,1156,2650,-1,-1,-1
0,1157,2480,1,-1,-1
0,1158,2130,-1,-1,-1
0,1159,1720,-1,-1,-1
0,1160,5100,-1,-1,-1
0,1161,4150,-1,-1,-1
0,1162,8680,1,-1,-1
0,1163,700,1,-1,-1
0,1164,3430,-1,-1,-1
0,1165,3510,-1,-1,-1
0,1166,5010,1,-1,-1
0,1167,2760,1,-1,-1
0,1168,1840,1,-1,-1
0,1169,790,1,-1,-1
0,1170,1620,1,-1,-1
0,1171,13490,-1,-1,-1
0,1172,9260,1,-1,-1
0,1173,4600,-1,-1,-1
0,1174,7940,-1,-1,-1
0,1175,1600,-1,-1,-1
0,1176,2230,1,-1,-1
0,1177,1590,1,-1,-1
0,1178,3000,-1,-1,-1
0,1179,1970,-1,-1,-1
0,1180,3590,1,-1,-1
0,1181,1480,-1,-1,-1
0,1182,15670,-1,-1,-1
0,1183,6780,1,-1,-1
0,1184,1620,-1,-1,-1
0,1185,4470,1,-1,-1
0,1186,1380,-1,-1,-1
0,1187,1400,1,-1,-1
0,1188,5230,1,-1,-1
0,1189,8660,-1,-1,-1
0,1190,2100,-1,-1,-1
0,1191,9000,-1,-1,-1
0,1192,1330,-1,-1,-1
0,1193,7400,-1,-1,-1
0,1194,5710,-1,-1,-1
0,1195,3430,-1,-1,-1
0,1196,3640,-1,-1,-1
0,1197,1660,-1,-1,-1
0,1198,5040,-1,-1,-1
0,1199,5070,-1,-1,-1
0,1200,4350,-1,0,-1
0,1201,6400,1,0,-1
0,1202,3090,-1,0,-1
0,1203,1730,-1,0,-1
0,1204,7810,-1,0,-1
0,1205,3430,-1,0,-1
0,1206,8000,-1,0,-1
0,1207,2130,-1,0,-1
0,1208,3790,-1,0,-1
0,1209,3330,-1,0,-1
0,1210,3100,-1,0,-1
0,1211,8670,1,0,-1
0,1212,4700,-1,0,-1
0,1213,2490,-1,0,-1
0,1214,4410,-1,0,-1
0,1215,4330,1,0,-1
0,1216,4670,-1,0,-1
0,1217,3340,-1,0,-1
0,1218,3700,-1,0,-1
0,1219,1260,1,0,-1
0,1220,4610,1,0,-1
0,1221,2800,-1,0,-1
0,1222,3530,-1,0,-1
0,1223,2110,-1,0,-1
0,1224,1420,-1,0,-1
0,1225,2240,1,0,-1
0,1226,2560,1,0,-1
0,1227,2540,-1,0,-1
0,1228,8320,-1,0,-1
0,1229,9300,1,0,-1
0,1230,1770,1,0,-1
0,1231,2580,-1,0,-1
0,1232,3420,-1,0,-1
0,1233,1130,-1,0,-1
0,1234,1040,-1,0,-1
0,1235,3330,1,0,-1
0,1236,2410,1,0,-1
0,1237,3720,-1,0,-1
0,1238,3020,-1,0,-1
0,1239,1480,1,0,-1
0,1240,3970,-1,0,-1
0,1241,4300,-1,0,-1
0,1242,930,1,0,-1
0,1243,460,-1,0,-1
0,1244,880,-1,0,-1
0,1245,3770,1,0,-1
0,1246,4260,1,0,-1
0,1247,2510,1,0,-1
0,1248,840,1,0,-1
0,1249,6570,-1,0,-1
0,1250,1800,-1,0,-1
0,1251,3280,-1,0,-1
0,1252,1560,-1,0,-1
0,1253,1580,-1,0,-1
0,1254,8410,-1,0,-1
0,1255,3410,-1,0,-1
0,1256,3220,-1,0,-1
0,1257,4380,1,0,-1
0,1258,8570,-1,0,-1
0,1259,4600,1,0,-1
0,1260,2910,-1,0,-1
0,1261,2920,-1,0,-1
0,1262,5980,-1,0,-1
0,1263,1680,1,0,-1
0,1264,14120,-1,0,-1
0,1265,2490,1,0,-1
0,1266,360,-1,0,-1
0,1267,1870,1,0,-1
0,1268,6660,-1,0,-1
0,1269,5130,-1,0,-1
0,1270,3280,-1,0,-1
0,1271,1510,1,0,-1
0,1272,3280,1,0,-1
0,1273,5320,1,0,-1
0,1274,2800,-1,0,-1
0,1275,4300,1,0,-1
0,1276,1730,-1,0,-1
0,1277,1780,1,0,-1
0,1278,500,1,0,-1
0,1279,2220,1,0,-1
0,1280,12030,-1,0,-1
0,1281,1480,-1,0,-1
0,1282,2650,1,0,-1
0,1283,2940,-1,0,-1
0,1284,1870,1,0,-1
0,1285,12200,1,0,-1
0,1286,6760,1,0,-1
0,1287,3400,-1,0,-1
0,1288,11170,1,0,-1
0,1289,8250,-1,0,-1
0,1290,6170,-1,0,-1
0,1291,670,-1,0,-1
0,1292,4290,-1,0,-1
0,1293,3180,1,0,-1
0,1294,960,-1,0,-1
0,1295,3330,-1,0,-1
0,1296,9330,-1,0,-1
0,1297,2470,1,0,-1
0,1298,1030,-1,0,-1
0,1299,6520,-1,0,-1
0,1300,5420,-1,0,-1
0,1301,6280,-1,0,-1
0,1302,2720,-1,0,-1
0,1303,2500,1,0,-1
0,1304,1820,-1,0,-1
0,1305,5610,-1,0,-1
0,1306,1200,-1,0,-1
0,1307,610,1,0,-1
0,1308,2190,1,0,-1
0,1309,1430,1,0,-1
0,1310,2120,1,0,-1
0,1311,8640,-1,0,-1
0,1312,6170,-1,0,-1
0,1313,2720,1,0,-1
0,1314,2890,-1,0,-1
0,1315,1560,-1,0,-1
0,1316,2070,-1,0,-1
0,1317,4440,-1,0,-1
0,1318,6630,-1,0,-1
0,1319,2540,-1,0,-1
0,1320,1060,-1,0,-1
0,1321,2620,-1,0,-1
0,1322,6550,-1,0,-1
0,1323,9930,1,0,-1
0,1324,1370,-1,0,-1
0,1325,1960,1,0,-1
0,1326,7940,-1,0,-1
0,1327,3770,1,0,-1
0,1328,1920,-1,0,-1
0,1329,4370,-1,0,-1
0,1330,6900,1,0,-1
0,1331,1090,-1,0,-1
0,1332,4560,1,0,-1
0,1333,2230,1,0,-1
0,1334,800,-1,0,-1
0,1335,4030,-1,0,-1
0,1336,4890,-1,0,-1
0,1337,4460,1,0,-1
0,1338,5030,-1,0,-1
0,1339,8440,-1,0,-1
0,1340,5480,1,0,-1
0,1341,650,1,0,-1
0,1342,5060,-1,0,-1
0,1343,1790,-1,0,-1
0,1344,1710,-1,0,-1
0,1345,1390,-1,0,-1
0,1346,1710,-1,0,-1
0,1347,6470,-1,0,-1
0,1348,17070,1,0,-1
0,1349,2800,1,0,-1
0,1350,3620,-1,0,-1
0,1351,6140,-1,0,-1
0,1352,1870,-1,0,-1
0,1353,2630,1,0,-1
0,1354,970,-1,0,-1
0,1355,3130,-1,0,-1
0,1356,370,1,0,-1
0,1357,3740,-1,0,-1
0,1358,1340,1,0,-1
0,1359,5060,1,0,-1
0,1360,2170,1,0,-1
0,1361,6910,-1,0,-1
0,1362,6180,-1,0,-1
0,1363,1810,1,0,-1
0,1364,2660,-1,0,-1
0,1365,920,1,0,-1
0,1366,7070,-1,0,-1
0,1367,1120,-1,0,-1
0,1368,1050,-1,0,-1
0,1369,2400,1,0,-1
0,1370,2690,1,0,-1
0,1371,3780,1,0,-1
0,1372,4690,-1,0,-1
0,1373,4050,1,0,-1
0,1374,3250,-1,0,-1
0,1375,4170,-1,0,-1
0,1376,1110,-1,0,-1
0,1377,2510,1,0,-1
0,1378,4890,-1,0,-1
0,1379,3100,-1,0,-1
0,1380,4020,1,0,-1
0,1381,2060,-1,0,-1
0,1382,4870,-1,0,-1
0,1383,6900,-1,0,-1
0,1384,2460,1,0,-1
0,1385,4620,1,0,-1
0,1386,1790,-1,0,-1
0,1387,2480,-1,0,-1
0,1388,2710,-1,0,-1
0,1389,2670,-1,0,-1
0,1390,4920,1,0,-1
0,1391,2400,-1,0,-1
0,1392,540,-1,0,-1
0,1393,2780,-1,0,-1
0,1394,3130,-1,0,-1
0,1395,7010,1,0,-1
0,1396,2310,-1,0,-1
0,1397,860,1,0,-1
0,1398,3780,-1,0,-1
0,1399,4850,-1,0,-1
0,1400,2300,-1,0,-1
0,1401,5250,1,0,-1
0,1402,1810,-1,0,-1
0,1403,2840,-1,0,-1
0,1404,6260,-1,0,-1
0,1405,2290,-1,0,-1
0,1406,960,1,0,-1
0,1407,1950,-1,0,-1
0,1408,9640,1,0,-1
0,1409,3650,-1,0,-1
0,1410,1490,-1,0,-1
0,1411,2620,-1,0,-1
0,1412,2980,-1,0,-1
0,1413,3350,-1,0,-1
0,1414,1960,-1,0,-1
0,1415,1530,-1,0,-1
0,1416,1140,-1,0,-1
0,1417,2480,1,0,-1
0,1418,840,1,0,-1
0,1419,2010,1,0,-1
0,1420,13580,-1,0,-1
0,1421,4530,-1,0,-1
0,1422,4480,-1,0,-1
0,1423,3990,-1,0,-1
0,1424,7620,-1,0,-1
0,1425,2880,-1,0,-1
0,1426,5600,-1,0,-1
0,1427,2370,1,0,-1
0,1428,2340,-1,0,-1
0,1429,4920,-1,0,-1
0,1430,860,-1,0,-1
0,1431,8950,-1,0,-1
0,1432,2200,-1,0,-1
0,1433,5920,-1,0,-1
0,1434,1790,1,0,-1
0,1435,1300,1,0,-1
0,1436,2550,-1,0,-1
0,1437,1290,-1,0,-1
0,1438,12720,-1,0,-1
0,1439,1030,1,0,-1
0,1440,4100,-1,0,-1
0,1441,3510,-1,0,-1
0,1442,7890,-1,0,-1
0,1443,2090,-1,0,-1
0,1444,4010,1,0,-1
0,1445,6070,-1,0,-1
0,1446,4220,-1,0,-1
0,1447,3460,-1,0,-1
0,1448,4140,-1,0,-1
0,1449,8250,1,0,-1
0,1450,5750,-1,0,-1
0,1451,7080,-1,0,-1
0,1452,4410,1,0,-1
0,1453,3300,-1,0,-1
0,1454,4320,1,0,-1
0,1455,2110,-1,0,-1
0,1456,4590,1,0,-1
0,1457,1320,1,0,-1
0,1458,4790,-1,0,-1
0,1459,6510,1,0,-1
0,1460,2850,-1,0,-1
0,1461,1460,-1,0,-1
0,1462,5760,1,0,-1
0,1463,8460,-1,0,-1
0,1464,1340,-1,0,-1
0,1465,1590,-1,0,-1
0,1466,6100,-1,0,-1
0,1467,4640,-1,0,-1
0,1468,2440,1,0,-1
0,1469,12650,1,0,-1
0,1470,6470,1,0,-1
0,1471,2090,-1,0,-1
0,1472,2870,-1,0,-1
0,1473,7340,1,0,-1
0,1474,2310,1,0,-1
0,1475,3190,-1,0,-1
0,1476,1650,-1,0,-1
0,1477,1460,-1,0,-1
0,1478,3670,-1,0,-1
0,1479,5520,1,0,-1
0,1480,1960,-1,0,-1
0,1481,4380,-1,0,-1
0,1482,2010,1,0,-1
0,1483,7600,-1,0,-1
0,1484,4350,-1,0,-1
0,1485,2020,-1,0,-1
0,1486,5260,-1,0,-1
0,1487,5860,-1,0,-1
0,1488,1820,-1,0,-1
0,1489,3460,1,0,-1
0,1490,1720,-1,0,-1
0,1491,2670,-1,0,-1
0,1492,2570,1,0,-1
0,1493,2720,-1,0,-1
0,1494,3320,1,0,-1
0,1495,5660,1,0,-1
0,1496,1660,1,0,-1
0,1497,4490,-1,0,-1
0,1498,18580,-1,0,-1
0,1499,3370,1,0,-1
0,1500,3660,1,0,-1
0,1501,4570,1,0,-1
0,1502,4500,1,0,-1
0,1503,7250,-1,0,-1
0,1504,4630,-1,0,-1
0,1505,650,-1,0,-1
0,1506,1680,-1,0,-1
0,1507,10390,-1,0,-1
0,1508,6290,-1,0,-1
0,1509,7300,-1,0,-1
0,1510,4900,-1,0,-1
0,1511,840,-1,0,-1
0,1512,3610,-1,0,-1
0,1513,4590,1,0,-1
0,1514,1710,1,0,-1
0,1515,1550,1,0,-1
0,1516,11190,-1,0,-1
0,1517,1980,-1,0,-1
0,1518,3080,-1,0,-1
0,1519,2780,-1,0,-1
0,1520,1710,1,0,-1
0,1521,28140,-1,0,-1
0,1522,2890,-1,0,-1
0,1523,1920,-1,0,-1
0,1524,4490,-1,0,-1
0,1525,910,-1,0,-1
0,1526,2970,1,0,-1
0,1527,5320,-1,0,-1
0,1528,1490,1,0,-1
0,1529,1040,1,0,-1
0,1530,4750,-1,0,-1
0,1531,9030,-1,0,-1
0,1532,9990,-1,0,-1
0,1533,4790,-1,0,-1
0,1534,15900,-1,0,-1
0,1535,2970,-1,0,-1
0,1536,2120,-1,0,-1
0,1537,7770,-1,0,-1
0,1538,1570,1,0,-1
0,1539,3460,-1,0,-1
0,1540,2440,1,0,-1
0,1541,2440,-1,0,-1
0,1542,3610,-1,0,-1
0,1543,2060,-1,0,-1
0,1544,2830,-1,0,-1
0,1545,3660,-1,0,-1
0,1546,710,-1,0,-1
0,1547,7410,-1,0,-1
0,1548,3760,-1,0,-1
0,1549,3990,-1,0,-1
0,1550,4090,-1,0,-1
0,1551,1850,-1,0,-1
0,1552,2210,1,0,-1
0,1553,470,-1,0,-1
0,1554,910,-1,0,-1
0,1555,720,-1,0,-1
0,1556,970,-1,0,-1
0,1557,8670,-1,0,-1
0,1558,1520,1,0,-1
0,1559,3530,1,0,-1
0,1560,3540,-1,0,-1
0,1561,2480,-1,0,-1
0,1562,4230,-1,0,-1
0,1563,2460,1,0,-1
0,1564,4690,-1,0,-1
0,1565,3210,-1,0,-1
0,1566,4450,-1,0,-1
0,1567,2860,1,0,-1
0,1568,3260,-1,0,-1
0,1569,5110,-1,0,-1
0,1570,4280,-1,0,-1
0,1571,1600,1,0,-1
0,1572,6100,1,0,-1
0,1573,1050,-1,0,-1
0,1574,2880,-1,0,-1
0,1575,2870,-1,0,-1
0,1576,2000,-1,0,-1
0,1577,5750,-1,0,-1
0,1578,3220,1,0,-1
0,1579,2370,1,0,-1
0,1580,2660,-1,0,-1
0,1581,7860,1,0,-1
0,1582,7360,-1,0,-1
0,1583,5340,-1,0,-1
0,1584,2410,1,0,-1
0,1585,1330,1,0,-1
0,1586,1540,-1,0,-1
0,1587,560,-1,0,-1
0,1588,9900,-1,0,-1
0,1589,490,-1,0,-1
0,1590,6380,-1,0,-1
0,1591,2110,1,0,-1
0,1592,1420,-1,0,-1
0,1593,5960,-1,0,-1
0,1594,2000,-1,0,-1
0,1595,1310,1,0,-1
0,1596,8690,1,0,-1
0,1597,7060,-1,0,-1
0,1598,1730,-1,0,-1
0,1599,960,-1,0,-1
0,1600,6480,1,-1,-1
0,1601,6910,1,-1,-1
0,1602,9390,-1,-1,-1
0,1603,3450,1,-1,-1
0,1604,1030,1,-1,-1
0,1605,1250,1,-1,-1
0,1606,1530,-1,-1,-1
0,1607,4760,1,-1,-1
0,1608,1470,-1,-1,-1
0,1609,3050,-1,-1,-1
0,1610,850,1,-1,-1
0,1611,6060,1,-1,-1
0,1612,2320,-1,-1,-1
0,1613,1840,-1,-1,-1
0,1614,3050,-1,-1,-1
0,1615,2240,1,-1,-1
0,1616,3660,1,-1,-1
0,1617,5610,1,-1,-1
0,1618,6520,1,-1,-1
0,1619,1030,1,-1,-1
0,1620,7030,-1,-1,-1
0,1621,5930,1,-1,-1
0,1622,2510,1,-1,-1
0,1623,780,-1,-1,-1
0,1624,2240,-1,-1,-1
0,1625,1060,-1,-1,-1
0,1626,5260,1,-1,-1
0,1627,3550,1,-1,-1
0,1628,720,1,-1,-1
0,1629,1680,-1,-1,-1
0,1630,4060,1,-1,-1
0,1631,9020,1,-1,-1
0,1632,3100,1,-1,-1
0,1633,3520,-1,-1,-1
0,1634,1150,1,-1,-1
0,1635,2550,1,-1,-1
0,1636,900,1,-1,-1
0,1637,3440,1,-1,-1
0,1638,2410,1,-1,-1
0,1639,5320,1,-1,-1
0,1640,1400,1,-1,-1
0,1641,910,1,-1,-1
0,1642,16470,-1,-1,-1
0,1643,4350,-1,-1,-1
0,1644,3240,1,-1,-1
0,1645,460,1,-1,-1
0,1646,1190,-1,-1,-1
0,1647,3240,-1,-1,-1
0,1648,4360,1,-1,-1
0,1649,4780,-1,-1,-1
0,1650,2850,1,-1,-1
0,1651,5930,1,-1,-1
0,1652,840,1,-1,-1
0,1653,660,1,-1,-1
0,1654,6060,1,-1,-1
0,1655,2700,1,-1,-1
0,1656,7290,-1,-1,-1
0,1657,4400,-1,-1,-1
0,1658,2980,-1,-1,-1
0,1659,5080,1,-1,-1
0,1660,2600,-1,-1,-1
0,1661,5970,1,-1,-1
0,1662,3140,-1,-1,-1
0,1663,5600,-1,-1,-1
0,1664,2200,-1,-1,-1
0,1665,2610,1,-1,-1
0,1666,3560,1,-1,-1
0,1667,3200,1,-1,-1
0,1668,3240,1,-1,-1
0,1669,2480,1,-1,-1
0,1670,4430,-1,-1,-1
0,1671,8390,1,-1,-1
0,1672,3170,1,-1,-1
0,1673,6170,-1,-1,-1
0,1674,1620,1,-1,-1
0,1675,1790,1,-1,-1
0,1676,7130,-1,-1,-1
0,1677,5300,-1,-1,-1
0,1678,8030,1,-1,-1
0,1679,1130,1,-1,-1
0,1680,860,1,-1,-1
0,1681,4510,1,-1,-1
0,1682,17090,1,-1,-1
0,1683,3770,-1,-1,-1
0,1684,6640,1,-1,-1
0,1685,3120,1,-1,-1
0,1686,3160,1,-1,-1
0,1687,1070,1,-1,-1
0,1688,8210,1,-1,-1
0,1689,1800,1,-1,-1
0,1690,8910,-1,-1,-1
0,1691,5500,-1,-1,-1
0,1692,3410,1,-1,-1
0,1693,2490,1,-1,-1
0,1694,4110,1,-1,-1
0,1695,4810,1,-1,-1
0,1696,1730,1,-1,-1
0,1697,3570,-1,-1,-1
0,1698,2810,1,-1,-1
0,1699,2690,-1,-1,-1
0,1700,820,1,-1,-1
0,1701,3860,1,-1,-1
0,1702,3020,-1,-1,-1
0,1703,1960,-1,-1,-1
0,1704,2450,-1,-1,-1
0,1705,6620,-1,-1,-1
0,1706,1250,1,-1,-1
0,1707,1190,1,-1,-1
0,1708,5620,1,-1,-1
0,1709,710,1,-1,-1
0,1710,7890,-1,-1,-1
0,1711,4080,-1,-1,-1
0,1712,1810,1,-1,-1
0,1713,5530,1,-1,-1
0,1714,1310,1,-1,-1
0,1715,4050,-1,-1,-1
0,1716,9390,1,-1,-1
0,1717,4770,1,-1,-1
0,1718,2310,-1,-1,-1
0,1719,6850,1,-1,-1
0,1720,3810,1,-1,-1
0,1721,5050,1,-1,-1
0,1722,10250,1,-1,-1
0,1723,2090,1,-1,-1
0,1724,3650,1,-1,-1
0,1725,4240,1,-1,-1
0,1726,3010,1,-1,-1
0,1727,1730,1,-1,-1
0,1728,4360,-1,-1,-1
0,1729,1560,1,-1,-1
0,1730,2740,1,-1,-1
0,1731,3930,1,-1,-1
0,1732,1940,1,-1,-1
0,1733,6480,-1,-1,-1
0,1734,6490,1,-1,-1
0,1735,6360,1,-1,-1
0,1736,6460,1,-1,-1
0,1737,5940,1,-1,-1
0,1738,2090,1,-1,-1
0,1739,3890,1,-1,-1
0,1740,750,1,-1,-1
0,1741,2480,1,-1,-1
0,1742,940,1,-1,-1
0,1743,470,1,-1,-1
0,1744,2500,-1,-1,-1
0,1745,5790,-1,-1,-1
0,1746,2100,-1,-1,-1
0,1747,1750,1,-1,-1
0,1748,2560,1,-1,-1
0,1749,3750,1,-1,-1
0,1750,1050,1,-1,-1
0,1751,3240,1,-1,-1
0,1752,5240,1,-1,-1
0,1753,3890,1,-1,-1
0,1754,3740,1,-1,-1
0,1755,17560,1,-1,-1
0,1756,3260,-1,-1,-1
0,1757,1760,1,-1,-1
0,1758,1790,1,-1,-1
0,1759,1560,1,-1,-1
0,1760,3940,-1,-1,-1
0,1761,1450,-1,-1,-1
0,1762,1090,1,-1,-1
0,1763,960,1,-1,-1
0,1764,4470,-1,-1,-1
0,1765,4130,-1,-1,-1
0,1766,6110,1,-1,-1
0,1767,2500,1,-1,-1
0,1768,1530,-1,-1,-1
0,1769,2490,1,-1,-1
0,1770,1970,1,-1,-1
0,1771,6240,1,-1,-1
0,1772,3730,1,-1,-1
0,1773,3630,1,-1,-1
0,1774,4660,-1,-1,-1
0,1775,7740,1,-1,-1
0,1776,3530,1,-1,-1
0,1777,4410,-1,-1,-1
0,1778,4720,-1,-1,-1
0,1779,2640,1,-1,-1
0,1780,1350,1,-1,-1
0,1781,3420,1,-1,-1
0,1782,2220,1,-1,-1
0,1783,2990,1,-1,-1
0,1784,610,1,-1,-1
0,1785,1160,-1,-1,-1
0,1786,3950,1,-1,-1
0,1787,1980,1,-1,-1
0,1788,1690,-1,-1,-1
0,1789,2000,-1,-1,-1
0,1790,10860,1,-1,-1
0,1791,3290,1,-1,-1
0,1792,2070,-1,-1,-1
0,1793,3130,1,-1,-1
0,1794,5290,-1,-1,-1
0,1795,7230,1,-1,-1
0,1796,2600,1,-1,-1
0,1797,4080,1,-1,-1
0,1798,670,1,-1,-1
0,1799,8390,1,-1,-1
0,1800,2650,-1,-1,-1
0,1801,2650,-1,-1,-1
0,1802,3320,-1,-1,-1
0,1803,5000,1,-1,-1
0,1804,1860,1,-1,-1
0,1805,2160,-1,-1,-1
0,1806,4500,1,-1,-1
0,1807,8110,1,-1,-1
0,1808,3730,1,-1,-1
0,1809,1870,1,-1,-1
0,1810,2110,1,-1,-1
0,1811,3810,-1,-1,-1
0,1812,560,1,-1,-1
0,1813,1740,1,-1,-1
0,1814,5000,1,-1,-1
0,1815,2080,-1,-1,-1
0,1816,1250,1,-1,-1
0,1817,3940,-1,-1,-1
0,1818,3370,-1,-1,-1
0,1819,1610,1,-1,-1
0,1820,2180,1,-1,-1
0,1821,3050,-1,-1,-1
0,1822,4270,1,-1,-1
0,1823,1660,1,-1,-1
0,1824,3850,1,-1,-1
0,1825,2520,1,-1,-1
0,1826,7710,1,-1,-1
0,1827,3980,1,-1,-1
0,1828,10670,1,-1,-1
0,1829,2020,1,-1,-1
0,1830,6570,1,-1,-1
0,1831,1020,-1,-1,-1
0,1832,1590,-1,-1,-1
0,1833,2420,1,-1,-1
0,1834,18220,1,-1,-1
0,1835,3010,-1,-1,-1
0,1836,5780,1,-1,-1
0,1837,810,1,-1,-1
0,1838,6080,1,-1,-1
0,1839,3940,-1,-1,-1
0,1840,7410,-1,-1,-1
0,1841,2950,1,-1,-1
0,1842,1880,1,-1,-1
0,1843,1670,1,-1,-1
0,1844,1730,1,-1,-1
0,1845,3530,1,-1,-1
0,1846,3660,1,-1,-1
0,1847,1290,1,-1,-1
0,1848,3570,1,-1,-1
0,1849,1680,-1,-1,-1
0,1850,4430,1,-1,-1
0,1851,1480,1,-1,-1
0,1852,1330,1,-1,-1
0,1853,4010,1,-1,-1
0,1854,1550,1,-1,-1
0,1855,7350,-1,-1,-1
0,1856,6870,1,-1,-1
0,1857,2790,-1,-1,-1
0,1858,2880,1,-1,-1
0,1859,2400,1,-1,-1
0,1860,1930,1,-1,-1
0,1861,1750,1,-1,-1
0,1862,8790,1,-1,-1
0,1863,1860,1,-1,-1
0,1864,4410,1,-1,-1
0,1865,2150,1,-1,-1
0,1866,4000,1,-1,-1
0,1867,2950,1,-1,-1
0,1868,4890,1,-1,-1
0,1869,4150,1,-1,-1
0,1870,2370,-1,-1,-1
0,1871,1130,-1,-1,-1
0,1872,4460,-1,-1,-1
0,1873,830,-1,-1,-1
0,1874,2030,1,-1,-1
0,1875,4140,1,-1,-1
0,1876,1420,1,-1,-1
0,1877,1360,-1,-1,-1
0,1878,750,1,-1,-1
0,1879,3180,1,-1,-1
0,1880,1030,-1,-1,-1
0,1881,11320,1,-1,-1
0,1882,1580,1,-1,-1
0,1883,3760,-1,-1,-1
0,1884,1740,1,-1,-1
0,1885,2080,-1,-1,-1
0,1886,3840,-1,-1,-1
0,1887,4940,1,-1,-1
0,1888,2410,-1,-1,-1
0,1889,2020,1,-1,-1
0,1890,5550,1,-1,-1
0,1891,1690,-1,-1,-1
0,1892,7400,-1,-1,-1
0,1893,6870,1,-1,-1
0,1894,2410,1,-1,-1
0,1895,2650,-1,-1,-1
0,1896,4020,1,-1,-1
0,1897,2650,1,-1,-1
0,1898,5140,-1,-1,-1
0,1899,1170,1,-1,-1
0,1900,3550,1,-1,-1
0,1901,1020,1,-1,-1
0,1902,1030,-1,-1,-1
0,1903,6150,-1,-1,-1
0,1904,2520,1,-1,-1
0,1905,4520,1,-1,-1
0,1906,5760,1,-1,-1
0,1907,3200,-1,-1,-1
0,1908,5470,1,-1,-1
0,1909,3910,-1,-1,-1
0,1910,5000,1,-1,-1
0,1911,2030,1,-1,-1
0,1912,2090,-1,-1,-1
0,1913,1570,-1,-1,-1
0,1914,7970,1,-1,-1
0,1915,2200,1,-1,-1
0,1916,5220,1,-1,-1
0,1917,1870,1,-1,-1
0,1918,860,1,-1,-1
0,1919,970,-1,-1,-1
0,1920,2380,1,-1,-1
0,1921,1060,1,-1,-1
0,1922,15960,-1,-1,-1
0,1923,4500,1,-1,-1
0,1924,490,1,-1,-1
0,1925,2060,-1,-1,-1
0,1926,1450,-1,-1,-1
0,1927,4790,1,-1,-1
0,1928,1890,1,-1,-1
0,1929,2700,1,-1,-1
0,1930,1960,1,-1,-1
0,1931,5930,1,-1,-1
0,1932,5410,1,-1,-1
0,1933,1680,-1,-1,-1
0,1934,5890,-1,-1,-1
0,1935,1500,-1,-1,-1
0,1936,5620,-1,-1,-1
0,1937,3900,-1,-1,-1
0,1938,4790,1,-1,-1
0,1939,3500,1,-1,-1
0,1940,2550,1,-1,-1
0,1941,5200,1,-1,-1
0,1942,550,1,-1,-1
0,1943,2130,1,-1,-1
0,1944,880,1,-1,-1
0,1945,980,1,-1,-1
0,1946,1060,1,-1,-1
0,1947,1730,1,-1,-1
0,1948,2800,1,-1,-1
0,1949,5550,1,-1,-1
0,1950,1840,1,-1,-1
0,1951,2200,1,-1,-1
0,1952,910,1,-1,-1
0,1953,3510,1,-1,-1
0,1954,1900,1,-1,-1
0,1955,2520,1,-1,-1
0,1956,820,1,-1,-1
0,1957,480,1,-1,-1
0,1958,3780,1,-1,-1
0,1959,2400,1,-1,-1
0,1960,5180,-1,-1,-1
0,1961,2460,1,-1,-1
0,1962,5400,1,-1,-1
0,1963,3520,1,-1,-1
0,1964,2820,1,-1,-1
0,1965,4540,1,-1,-1
0,1966,4200,1,-1,-1
0,1967,5010,-1,-1,-1
0,1968,7300,1,-1,-1
0,1969,2940,1,-1,-1
0,1970,7560,1,-1,-1
0,1971,7720,1,-1,-1
0,1972,1770,-1,-1,-1
0,1973,11560,1,-1,-1
0,1974,2470,-1,-1,-1
0,1975,5320,1,-1,-1
0,1976,5510,1,-1,-1
0,1977,1910,1,-1,-1
0,1978,8230,1,-1,-1
0,1979,6440,-1,-1,-1
0,1980,4630,1,-1,-1
0,1981,6960,1,-1,-1
0,1982,4320,1,-1,-1
0,1983,8410,1,-1,-1
0,1984,5090,-1,-1,-1
0,1985,7270,1,-1,-1
0,1986,3480,-1,-1,-1
0,1987,1210,1,-1,-1
0,1988,3980,1,-1,-1
0,1989,420,1,-1,-1
0,1990,4940,1,-1,-1
0,1991,4310,1,-1,-1
0,1992,2610,1,-1,-1
0,1993,2640,1,-1,-1
0,1994,1270,1,-1,-1
0,1995,1210,1,-1,-1
0,1996,1320,1,-1,-1
0,1997,4560,-1,-1,-1
0,1998,1930,1,-1,-1
0,1999,2440,1,-1,-1
0,2000,2510,-1,1,1
0,2001,5510,1,1,1
0,2002,12740,-1,1,1
0,2003,9140,-1,1,1
0,2004,980,-1,1,1
0,2005,2070,-1,1,1
0,2006,17060,1,1,1
0,2007,3020,1,1,1
0,2008,4570,1,1,1
0,2009,1200,-1,1,1
0,2010,1350,1,1,1
0,2011,2120,1,1,1
0,2012,5840,1,1,1
0,2013,5940,1,1,1
0,2014,3220,1,1,1
0,2015,2470,-1,1,1
0,2016,5810,1,1,1
0,2017,5470,-1,1,1
0,2018,7970,-1,1,1
0,2019,3210,1,1,1
0,2020,6940,-1,1,1
0,2021,1530,-1,1,1
0,2022,910,-1,1,1
0,2023,6490,1,1,1
0,2024,3050,1,1,1
0,2025,1480,1,1,1
0,2026,2790,1,1,1
0,2027,2630,1,1,1
0,2028,3470,1,1,1
0,2029,2640,1,1,1
0,2030,11340,-1,1,1
0,2031,3780,-1,1,1
0,2032,1010,1,1,1
0,2033,1820,1,1,1
0,2034,4380,-1,1,1
0,2035,2990,-1,1,1
0,2036,7450,1,1,1
0,2037,660,1,1,1
0,2038,6010,-1,1,1
0,2039,1280,1,1,1
0,2040,2880,1,1,1
0,2041,1710,-1,1,1
0,2042,7110,-1,1,1
0,2043,2570,-1,1,1
0,2044,6540,-1,1,1
0,2045,7880,1,1,1
0,2046,2270,1,1,1
0,2047,770,1,1,1
0,2048,6270,-1,1,1
0,2049,3800,1,1,1
0,2050,3290,-1,1,1
0,2051,760,-1,1,1
0,2052,2050,1,1,1
0,2053,3970,-1,1,1
0,2054,4020,1,1,1
0,2055,8780,1,1,1
0,2056,2120,1,1,1
0,2057,3380,-1,1,1
0,2058,10220,1,1,1
0,2059,2430,-1,1,1
0,2060,650,-1,1,1
0,2061,1090,-1,1,1
0,2062,14240,1,1,1
0,2063,2480,1,1,1
0,2064,6120,1,1,1
0,2065,3870,1,1,1
0,2066,2810,-1,1,1
0,2067,4710,1,1,1
0,2068,6310,-1,1,1
0,2069,13900,1,1,1
0,2070,14290,-1,1,1
0,2071,7790,1,1,1
0,2072,2310,1,1,1
0,2073,6600,1,1,1
0,2074,2410,1,1,1
0,2075,1860,1,1,1
0,2076,3640,1,1,1
0,2077,3350,-1,1,1
0,2078,12820,-1,1,1
0,2079,3740,1,1,1
0,2080,1180,1,1,1
0,2081,5230,1,1,1
0,2082,990,-1,1,1
0,2083,460,-1,1,1
0,2084,8570,-1,1,1
0,2085,1800,-1,1,1
0,2086,990,1,1,1
0,2087,1970,-1,1,1
0,2088,1870,1,1,1
0,2089,700,-1,1,1
0,2090,12910,-1,1,1
0,2091,7250,1,1,1
0,2092,1620,1,1,1
0,2093,1660,-1,1,1
0,2094,5090,1,1,1
0,2095,6020,-1,1,1
0,2096,360,1,1,1
0,2097,13510,1,1,1
0,2098,2160,1,1,1
0,2099,1470,1,1,1
0,2100,10080,-1,1,1
0,2101,1950,1,1,1
0,2102,3790,1,1,1
0,2103,4440,1,1,1
0,2104,7280,1,1,1
0,2105,4870,1,1,1
0,2106,2430,1,1,1
0,2107,2130,-1,1,1
0,2108,2590,1,1,1
0,2109,12230,-1,1,1
0,2110,6750,1,1,1
0,2111,3300,-1,1,1
0,2112,2940,-1,1,1
0,2113,2820,-1,1,1
0,2114,6160,1,1,1
0,2115,1470,-1,1,1
0,2116,4970,-1,1,1
0,2117,2990,1,1,1
0,2118,1700,1,1,1
0,2119,12750,1,1,1
0,2120,980,1,1,1
0,2121,4920,-1,1,1
0,2122,3250,-1,1,1
0,2123,3170,-1,1,1
0,2124,4420,1,1,1
0,2125,7450,1,1,1
0,2126,4360,1,1,1
0,2127,3660,-1,1,1
0,2128,910,-1,1,1
0,2129,2580,-1,1,1
0,2130,1430,1,1,1
0,2131,5010,1,1,1
0,2132,1010,-1,1,1
0,2133,5520,-1,1,1
0,2134,2260,-1,1,1
0,2135,1520,1,1,1
0,2136,4070,-1,1,1
0,2137,4120,1,1,1
0,2138,800,1,1,1
0,2139,1240,-1,1,1
0,2140,7460,1,1,1
0,2141,670,-1,1,1
0,2142,4150,1,1,1
0,2143,930,-1,1,1
0,2144,7260,-1,1,1
0,2145,7900,-1,1,1
0,2146,2530,1,1,1
0,2147,1920,-1,1,1
0,2148,2560,-1,1,1
0,2149,680,1,1,1
0,2150,990,1,1,1
0,2151,2790,1,1,1
0,2152,2840,1,1,1
0,2153,3840,-1,1,1
0,2154,2710,-1,1,1
0,2155,2390,-1,1,1
0,2156,7310,1,1,1
0,2157,2290,-1,1,1
0,2158,2720,1,1,1
0,2159,1460,-1,1,1
0,2160,6350,-1,1,1
0,2161,2340,1,1,1
0,2162,3990,-1,1,1
0,2163,6980,1,1,1
0,2164,3280,-1,1,1
0,2165,4540,-1,1,1
0,2166,2150,-1,1,1
0,2167,4860,1,1,1
0,2168,2970,1,1,1
0,2169,570,-1,1,1
0,2170,5800,-1,1,1
0,2171,7960,1,1,1
0,2172,1570,1,1,1
0,2173,4560,-1,1,1
0,2174,8220,-1,1,1
0,2175,2970,1,1,1
0,2176,840,1,1,1
0,2177,5020,1,1,1
0,2178,9220,-1,1,1
0,2179,14770,1,1,1
0,2180,12110,-1,1,1
0,2181,15370,1,1,1
0,2182,8330,1,1,1
0,2183,2660,-1,1,1
0,2184,6260,-1,1,1
0,2185,4080,1,1,1
0,2186,1250,1,1,1
0,2187,1040,-1,1,1
0,2188,3230,-1,1,1
0,2189,14350,-1,1,1
0,2190,2030,1,1,1
0,2191,4490,1,1,1
0,2192,6710,-1,1,1
0,2193,440,1,1,1
0,2194,4670,1,1,1
0,2195,8760,-1,1,1
0,2196,5270,1,1,1
0,2197,2770,1,1,1
0,2198,10280,1,1,1
0,2199,3370,1,1,1
0,2200,1620,1,1,1
0,2201,3490,1,1,1
0,2202,3970,1,1,1
0,2203,3870,-1,1,1
0,2204,4650,1,1,1
0,2205,6210,-1,1,1
0,2206,4440,1,1,1
0,2207,3090,1,1,1
0,2208,3240,1,1,1
0,2209,760,-1,1,1
0,2210,1750,-1,1,1
0,2211,1380,1,1,1
0,2212,4350,-1,1,1
0,2213,10490,1,1,1
0,2214,2580,-1,1,1
0,2215,5600,-1,1,1
0,2216,2510,-1,1,1
0,2217,1640,1,1,1
0,2218,6060,-1,1,1
0,2219,2670,1,1,1
0,2220,7810,1,1,1
0,2221,3100,1,1,1
0,2222,910,-1,1,1
0,2223,1310,1,1,1
0,2224,3620,-1,1,1
0,2225,10050,1,1,1
0,2226,770,1,1,1
0,2227,4780,-1,1,1
0,2228,6780,1,1,1
0,2229,1970,-1,1,1
0,2230,11490,1,1,1
0,2231,2300,1,1,1
0,2232,1180,-1,1,1
0,2233,1350,-1,1,1
0,2234,950,-1,1,1
0,2235,5490,1,1,1
0,2236,5110,1,1,1
0,2237,1000,-1,1,1
0,2238,1990,1,1,1
0,2239,4310,-1,1,1
0,2240,940,1,1,1
0,2241,6880,1,1,1
0,2242,1820,-1,1,1
0,2243,3140,-1,1,1
0,2244,4270,1,1,1
0,2245,5780,1,1,1
0,2246,2320,1,1,1
0,2247,4300,1,1,1
0,2248,10910,-1,1,1
0,2249,790,1,1,1
0,2250,8570,1,1,1
0,2251,2730,-1,1,1
0,2252,2750,1,1,1
0,2253,6320,-1,1,1
0,2254,6610,-1,1,1
0,2255,4390,1,1,1
0,2256,910,-1,1,1
0,2257,4210,-1,1,1
0,2258,3020,-1,1,1
0,2259,1660,-1,1,1
0,2260,2140,-1,1,1
0,2261,2920,1,1,1
0,2262,2390,-1,1,1
0,2263,4180,1,1,1
0,2264,6860,-1,1,1
0,2265,3760,1,1,1
0,2266,2610,-1,1,1
0,2267,7450,1,1,1
0,2268,1820,1,1,1
0,2269,6460,-1,1,1
0,2270,540,1,1,1
0,2271,3530,-1,1,1
0,2272,6430,1,1,1
0,2273,520,1,1,1
0,2274,14620,1,1,1
0,2275,9860,-1,1,1
0,2276,8430,-1,1,1
0,2277,10350,1,1,1
0,2278,2940,-1,1,1
0,2279,1860,1,1,1
0,2280,1340,1,1,1
0,2281,2030,-1,1,1
0,2282,17300,-1,1,1
0,2283,5200,-1,1,1
0,2284,10290,-1,1,1
0,2285,1460,-1,1,1
0,2286,800,-1,1,1
0,2287,440,1,1,1
0,2288,5810,-1,1,1
0,2289,800,1,1,1
0,2290,3400,1,1,1
0,2291,1510,1,1,1
0,2292,840,1,1,1
0,2293,4340,-1,1,1
0,2294,2370,-1,1,1
0,2295,3660,1,1,1
0,2296,430,-1,1,1
0,2297,1820,-1,1,1
0,2298,12250,-1,1,1
0,2299,3090,-1,1,1
0,2300,1680,-1,1,1
0,2301,1010,1,1,1
0,2302,880,1,1,1
0,2303,3590,1,1,1
0,2304,1710,-1,1,1
0,2305,1830,-1,1,1
0,2306,2400,-1,1,1
0,2307,3260,1,1,1
0,2308,2200,-1,1,1
0,2309,3120,1,1,1
0,2310,12510,1,1,1
0,2311,11210,1,1,1
0,2312,9240,-1,1,1
0,2313,4820,-1,1,1
0,2314,3830,1,1,1
0,2315,1120,1,1,1
0,2316,3670,1,1,1
0,2317,1310,1,1,1
0,2318,2490,1,1,1
0,2319,2100,1,1,1
0,2320,5690,-1,1,1
0,2321,1160,1,1,1
0,2322,4210,-1,1,1
0,2323,2890,1,1,1
0,2324,1900,-1,1,1
0,2325,2720,1,1,1
0,2326,530,1,1,1
0,2327,3270,1,1,1
0,2328,3960,1,1,1
0,2329,840,1,1,1
0,2330,3240,1,1,1
0,2331,1780,-1,1,1
0,2332,2940,1,1,1
0,2333,5290,-1,1,1
0,2334,410,1,1,1
0,2335,1280,1,1,1
0,2336,10410,1,1,1
0,2337,2890,1,1,1
0,2338,5920,1,1,1
0,2339,10080,1,1,1
0,2340,3100,1,1,1
0,2341,1740,1,1,1
0,2342,10560,-1,1,1
0,2343,2480,1,1,1
0,2344,6210,1,1,1
0,2345,2320,1,1,1
0,2346,1400,-1,1,1
0,2347,4160,1,1,1
0,2348,2460,1,1,1
0,2349,4040,1,1,1
0,2350,1230,-1,1,1
0,2351,1820,1,1,1
0,2352,1020,1,1,1
0,2353,4410,-1,1,1
0,2354,3610,1,1,1
0,2355,2580,1,1,1
0,2356,9280,-1,1,1
0,2357,3120,1,1,1
0,2358,3300,1,1,1
0,2359,1960,1,1,1
0,2360,2300,1,1,1
0,2361,3680,1,1,1
0,2362,14750,1,1,1
0,2363,2560,-1,1,1
0,2364,5120,-1,1,1
0,2365,16420,1,1,1
0,2366,4160,1,1,1
0,2367,1370,-1,1,1
0,2368,1490,1,1,1
0,2369,710,-1,1,1
0,2370,1360,1,1,1
0,2371,1550,1,1,1
0,2372,3000,1,1,1
0,2373,6600,1,1,1
0,2374,12240,1,1,1
0,2375,1600,-1,1,1
0,2376,4310,-1,1,1
0,2377,3380,-1,1,1
0,2378,6120,1,1,1
0,2379,1460,-1,1,1
0,2380,9200,1,1,1
0,2381,550,-1,1,1
0,2382,1100,1,1,1
0,2383,2610,-1,1,1
0,2384,7080,-1,1,1
0,2385,8740,-1,1,1
0,2386,4630,1,1,1
0,2387,9340,1,1,1
0,2388,5790,-1,1,1
0,2389,2910,1,1,1
0,2390,4000,1,1,1
0,2391,1340,1,1,1
0,2392,1240,-1,1,1
0,2393,1830,1,1,1
0,2394,3820,1,1,1
0,2395,1910,1,1,1
0,2396,1690,1,1,1
0,2397,4230,-1,1,1
0,2398,2790,1,1,1
0,2399,5780,-1,1,1
0,2400,16450,1,0,0
0,2401,780,1,0,0
0,2402,3520,1,0,0
0,2403,8350,1,0,0
0,2404,2210,-1,0,0
0,2405,3350,-1,0,0
0,2406,3220,1,0,0
0,2407,4070,-1,0,0
0,2408,2760,1,0,0
0,2409,2480,1,0,0
0,2410,7650,-1,0,0
0,2411,720,1,0,0
0,2412,9360,1,0,0
0,2413,3270,1,0,0
0,2414,1230,1,0,0
0,2415,1520,1,0,0
0,2416,3360,1,0,0
0,2417,2770,-1,0,0
0,2418,2980,-1,0,0
0,2419,3440,-1,0,0
0,2420,5880,1,0,0
0,2421,2980,1,0,0
0,2422,2570,1,0,0
0,2423,5870,-1,0,0
0,2424,6030,-1,0,0
0,2425,7320,1,0,0
0,2426,1820,1,0,0
0,2427,4100,1,0,0
0,2428,2060,1,0,0
0,2429,2070,1,0,0
0,2430,2550,1,0,0
0,2431,5740,1,0,0
0,2432,3930,1,0,0
0,2433,5710,-1,0,0
0,2434,6270,1,0,0
0,2435,5190,1,0,0
0,2436,7300,1,0,0
0,2437,6380,-1,0,0
0,2438,8950,1,0,0
0,2439,3700,1,0,0
0,2440,6230,1,0,0
0,2441,4330,-1,0,0
0,2442,1630,1,0,0
0,2443,2280,-1,0,0
0,2444,9270,-1,0,0
0,2445,3880,-1,0,0
0,2446,13550,-1,0,0
0,2447,3040,1,0,0
0,2448,2690,-1,0,0
0,2449,6450,-1,0,0
0,2450,3280,1,0,0
0,2451,2470,-1,0,0
0,2452,9890,1,0,0
0,2453,8700,-1,0,0
0,2454,5160,1,0,0
0,2455,1910,-1,0,0
0,2456,1750,-1,0,0
0,2457,1060,-1,0,0
0,2458,2250,-1,0,0
0,2459,9550,-1,0,0
0,2460,1220,-1,0,0
0,2461,1820,1,0,0
0,2462,3930,1,0,0
0,2463,2250,1,0,0
0,2464,6460,-1,0,0
0,2465,2800,-1,0,0
0,2466,2750,-1,0,0
0,2467,3270,1,0,0
0,2468,2250,-1,0,0
0,2469,1080,-1,0,0
0,2470,5270,-1,0,0
0,2471,6590,1,0,0
0,2472,2960,1,0,0
0,2473,4160,1,0,0
0,2474,1460,1,0,0
0,2475,4950,-1,0,0
0,2476,2060,-1,0,0
0,2477,3220,1,0,0
0,2478,10030,1,0,0
0,2479,1410,-1,0,0
0,2480,4720,-1,0,0
0,2481,660,-1,0,0
0,2482,1990,1,0,0
0,2483,4970,1,0,0
0,2484,2520,1,0,0
0,2485,3110,1,0,0
0,2486,8260,-1,0,0
0,2487,1700,1,0,0
0,2488,1920,-1,0,0
0,2489,3550,1,0,0
0,2490,5850,-1,0,0
0,2491,13590,1,0,0
0,2492,1830,-1,0,0
0,2493,7320,1,0,0
0,2494,3520,-1,0,0
0,2495,2210,-1,0,0
0,2496,1380,-1,0,0
0,2497,22120,1,0,0
0,2498,560,-1,0,0
0,2499,5070,1,0,0
0,2500,1770,1,0,0
0,2501,1400,-1,0,0
0,2502,7180,1,0,0
0,2503,760,1,0,0
0,2504,3400,-1,0,0
0,2505,4060,1,0,0
0,2506,1540,1,0,0
0,2507,1410,-1,0,0
0,2508,3840,-1,0,0
0,2509,7180,-1,0,0
0,2510,3090,-1,0,0
0,2511,12510,1,0,0
0,2512,2070,-1,0,0
0,2513,4280,-1,0,0
0,2514,1360,1,0,0
0,2515,3070,-1,0,0
0,2516,3330,-1,0,0
0,2517,3760,1,0,0
0,2518,1230,-1,0,0
0,2519,2940,1,0,0
0,2520,9790,-1,0,0
0,2521,4330,-1,0,0
0,2522,7010,-1,0,0
0,2523,5370,1,0,0
0,2524,1200,-1,0,0
0,2525,2010,1,0,0
0,2526,5580,-1,0,0
0,2527,3760,-1,0,0
0,2528,4060,-1,0,0
0,2529,1110,1,0,0
0,2530,980,-1,0,0
0,2531,970,1,0,0
0,2532,1700,1,0,0
0,2533,2720,1,0,0
0,2534,8240,-1,0,0
0,2535,13740,1,0,0
0,2536,2920,1,0,0
0,2537,1810,1,0,0
0,2538,7200,1,0,0
0,2539,7960,1,0,0
0,2540,2740,-1,0,0
0,2541,3650,1,0,0
0,2542,1790,1,0,0
0,2543,1530,1,0,0
0,2544,7080,1,0,0
0,2545,6670,1,0,0
0,2546,4190,-1,0,0
0,2547,800,1,0,0
0,2548,3720,-1,0,0
0,2549,630,1,0,0
0,2550,3310,-1,0,0
0,2551,5530,-1,0,0
0,2552,2230,1,0,0
0,2553,1910,1,0,0
0,2554,3510,1,0,0
0,2555,750,-1,0,0
0,2556,4450,-1,0,0
0,2557,3260,1,0,0
0,2558,6340,-1,0,0
0,2559,4250,1,0,0
0,2560,3670,-1,0,0
0,2561,6630,1,0,0
0,2562,1340,-1,0,0
0,2563,9760,1,0,0
0,2564,1320,1,0,0
0,2565,5340,-1,0,0
0,2566,11800,-1,0,0
0,2567,1140,1,0,0
0,2568,6430,1,0,0
0,2569,6220,1,0,0
0,2570,10560,-1,0,0
0,2571,2700,1,0,0
0,2572,8780,1,0,0
0,2573,2040,-1,0,0
0,2574,12500,1,0,0
0,2575,5740,-1,0,0
0,2576,2860,-1,0,0
0,2577,7680,1,0,0
0,2578,2430,-1,0,0
0,2579,2160,-1,0,0
0,2580,5820,-1,0,0
0,2581,900,-1,0,0
0,2582,13810,1,0,0
0,2583,6630,1,0,0
0,2584,3070,-1,0,0
0,2585,5150,1,0,0
0,2586,8620,1,0,0
0,2587,2020,1,0,0
0,2588,18900,-1,0,0
0,2589,3150,-1,0,0
0,2590,1300,1,0,0
0,2591,1820,1,0,0
0,2592,2710,-1,0,0
0,2593,1350,-1,0,0
0,2594,6380,1,0,0
0,2595,1510,-1,0,0
0,2596,2060,-1,0,0
0,2597,8120,1,0,0
0,2598,8220,1,0,0
0,2599,5410,-1,0,0
0,2600,9760,1,0,0
0,2601,4920,-1,0,0
0,2602,1240,-1,0,0
0,2603,5750,-1,0,0
0,2604,1960,1,0,0
0,2605,3350,-1,0,0
0,2606,2110,1,0,0
0,2607,6480,1,0,0
0,2608,2090,-1,0,0
0,2609,2970,1,0,0
0,2610,4910,1,0,0
0,2611,5410,1,0,0
0,2612,3490,1,0,0
0,2613,9170,1,0,0
0,2614,8600,-1,0,0
0,2615,6150,-1,0,0
0,2616,3950,-1,0,0
0,2617,3140,1,0,0
0,2618,1340,1,0,0
0,2619,2850,1,0,0
0,2620,8880,1,0,0
0,2621,5430,-1,0,0
0,2622,2980,1,0,0
0,2623,1980,1,0,0
0,2624,3570,1,0,0
0,2625,3540,1,0,0
0,2626,1030,1,0,0
0,2627,8670,1,0,0
0,2628,5630,1,0,0
0,2629,2940,1,0,0
0,2630,1180,-1,0,0
0,2631,2320,1,0,0
0,2632,3650,1,0,0
0,2633,5680,-1,0,0
0,2634,1870,-1,0,0
0,2635,590,1,0,0
0,2636,2790,-1,0,0
0,2637,3280,1,0,0
0,2638,750,-1,0,0
0,2639,1340,-1,0,0
0,2640,4030,1,0,0
0,2641,1500,1,0,0
0,2642,4760,1,0,0
0,2643,8990,-1,0,0
0,2644,1900,-1,0,0
0,2645,7520,-1,0,0
0,2646,2550,-1,0,0
0,2647,470,-1,0,0
0,2648,630,1,0,0
0,2649,3340,1,0,0
0,2650,5850,1,0,0
0,2651,2420,-1,0,0
0,2652,1590,1,0,0
0,2653,6310,1,0,0
0,2654,1280,1,0,0
0,2655,4660,-1,0,0
0,2656,1650,-1,0,0
0,2657,640,-1,0,0
0,2658,4200,-1,0,0
0,2659,1150,1,0,0
0,2660,1390,-1,0,0
0,2661,6490,1,0,0
0,2662,6720,1,0,0
0,2663,2820,1,0,0
0,2664,8630,-1,0,0
0,2665,6870,1,0,0
0,2666,1620,1,0,0
0,2667,3610,1,0,0
0,2668,4730,1,0,0
0,2669,4450,1,0,0
0,2670,1990,-1,0,0
0,2671,930,-1,0,0
0,2672,5140,1,0,0
0,2673,10630,-1,0,0
0,2674,3690,1,0,0
0,2675,1590,1,0,0
0,2676,1430,-1,0,0
0,2677,1240,1,0,0
0,2678,7520,-1,0,0
0,2679,2290,1,0,0
0,2680,10070,1,0,0
0,2681,7370,1,0,0
0,2682,1430,-1,0,0
0,2683,5930,-1,0,0
0,2684,3790,1,0,0
0,2685,580,-1,0,0
0,2686,2010,1,0,0
0,2687,1990,-1,0,0
0,2688,6240,1,0,0
0,2689,450,1,0,0
0,2690,1160,1,0,0
0,2691,2370,1,0,0
0,2692,1510,1,0,0
0,2693,6990,1,0,0
0,2694,16980,-1,0,0
0,2695,860,1,0,0
0,2696,5260,1,0,0
0,2697,1950,1,0,0
0,2698,1830,1,0,0
0,2699,650,-1,0,0
0,2700,5280,1,0,0
0,2701,8540,-1,0,0
0,2702,910,1,0,0
0,2703,3680,1,0,0
0,2704,2300,1,0,0
0,2705,1930,1,0,0
0,2706,4360,1,0,0
0,2707,7790,-1,0,0
0,2708,1820,1,0,0
0,2709,5700,-1,0,0
0,2710,1390,-1,0,0
0,2711,4550,1,0,0
0,2712,4240,1,0,0
0,2713,9130,-1,0,0
0,2714,6680,1,0,0
0,2715,11530,1,0,0
0,2716,1530,1,0,0
0,2717,4020,-1,0,0
0,2718,1640,-1,0,0
0,2719,10470,1,0,0
0,2720,1220,1,0,0
0,2721,8600,-1,0,0
0,2722,770,-1,0,0
0,2723,4210,-1,0,0
0,2724,5690,1,0,0
0,2725,4440,1,0,0
0,2726,1160,-1,0,0
0,2727,740,1,0,0
0,2728,9090,1,0,0
0,2729,6830,-1,0,0
0,2730,2120,1,0,0
0,2731,8460,1,0,0
0,2732,1470,1,0,0
0,2733,880,-1,0,0
0,2734,9810,-1,0,0
0,2735,910,-1,0,0
0,2736,5870,1,0,0
0,2737,1240,-1,0,0
0,2738,19250,-1,0,0
0,2739,6740,1,0,0
0,2740,8890,-1,0,0
0,2741,1060,1,0,0
0,2742,1200,-1,0,0
0,2743,3720,1,0,0
0,2744,590,1,0,0
0,2745,5720,-1,0,0
0,2746,1580,-1,0,0
0,2747,5500,-1,0,0
0,2748,9360,1,0,0
0,2749,3480,-1,0,0
0,2750,2020,1,0,0
0,2751,2240,-1,0,0
0,2752,7970,1,0,0
0,2753,2070,1,0,0
0,2754,1260,-1,0,0
0,2755,4540,1,0,0
0,2756,730,1,0,0
0,2757,2090,-1,0,0
0,2758,6860,1,0,0
0,2759,1600,-1,0,0
0,2760,7660,1,0,0
0,2761,3170,1,0,0
0,2762,490,1,0,0
0,2763,1270,-1,0,0
0,2764,2680,1,0,0
0,2765,1510,-1,0,0
0,2766,1840,1,0,0
0,2767,3140,-1,0,0
0,2768,2360,-1,0,0
0,2769,1650,1,0,0
0,2770,8040,-1,0,0
0,2771,1770,-1,0,0
0,2772,4920,-1,0,0
0,2773,7790,1,0,0
0,2774,5920,1,0,0
0,2775,15780,1,0,0
0,2776,1040,1,0,0
0,2777,4480,-1,0,0
0,2778,4490,1,0,0
0,2779,21640,1,0,0
0,2780,4740,1,0,0
0,2781,1650,1,0,0
0,2782,790,-1,0,0
0,2783,2970,-1,0,0
0,2784,3580,1,0,0
0,2785,2290,-1,0,0
0,2786,4090,-1,0,0
0,2787,3200,-1,0,0
0,2788,870,-1,0,0
0,2789,4380,1,0,0
0,2790,4190,1,0,0
0,2791,4460,1,0,0
0,2792,10310,1,0,0
0,2793,2170,-1,0,0
0,2794,4460,-1,0,0
0,2795,3230,-1,0,0
0,2796,1530,1,0,0
0,2797,1780,1,0,0
0,2798,6360,-1,0,0
0,2799,680,1,0,0
0,2800,2190,-1,1,0
0,2801,1690,-1,1,0
0,2802,2240,-1,1,0
0,2803,1650,-1,1,0
0,2804,730,-1,1,0
0,2805,1370,-1,1,0
0,2806,2960,1,1,0
0,2807,3630,-1,1,0
0,2808,1390,1,1,0
0,2809,1540,-1,1,0
0,2810,550,-1,1,0
0,2811,570,-1,1,0
0,2812,2970,-1,1,0
0,2813,2310,-1,1,0
0,2814,330,-1,1,0
0,2815,2450,-1,1,0
0,2816,4530,1,1,0
0,2817,570,-1,1,0
0,2818,940,-1,1,0
0,2819,1350,-1,1,0
0,2820,4160,-1,1,0
0,2821,2550,-1,1,0
0,2822,3430,1,1,0
0,2823,990,-1,1,0
0,2824,2140,1,1,0
0,2825,2050,-1,1,0
0,2826,4150,-1,1,0
0,2827,1540,-1,1,0
0,2828,1290,-1,1,0
0,2829,14700,-1,1,0
0,2830,1280,1,1,0
0,2831,1120,-1,1,0
0,2832,2370,-1,1,0
0,2833,1230,1,1,0
0,2834,2750,-1,1,0
0,2835,2520,-1,1,0
0,2836,2180,-1,1,0
0,2837,1950,-1,1,0
0,2838,900,-1,1,0
0,2839,2420,-1,1,0
0,2840,2810,-1,1,0
0,2841,1400,-1,1,0
0,2842,8200,-1,1,0
0,2843,1630,-1,1,0
0,2844,2120,-1,1,0
0,2845,8910,-1,1,0
0,2846,8680,-1,1,0
0,2847,9760,-1,1,0
0,2848,3040,-1,1,0
0,2849,1500,-1,1,0
0,2850,1690,-1,1,0
0,2851,2410,-1,1,0
0,2852,2540,-1,1,0
0,2853,2300,-1,1,0
0,2854,3870,-1,1,0
0,2855,830,-1,1,0
0,2856,2780,1,1,0
0,2857,1630,-1,1,0
0,2858,700,1,1,0
0,2859,2690,-1,1,0
0,2860,2330,-1,1,0
0,2861,3210,-1,1,0
0,2862,1440,-1,1,0
0,2863,2060,-1,1,0
0,2864,3980,-1,1,0
0,2865,2000,-1,1,0
0,2866,640,-1,1,0
0,2867,890,-1,1,0
0,2868,6900,-1,1,0
0,2869,1740,-1,1,0
0,2870,1920,1,1,0
0,2871,3840,-1,1,0
0,2872,810,-1,1,0
0,2873,5160,-1,1,0
0,2874,2110,1,1,0
0,2875,1780,-1,1,0
0,2876,1370,-1,1,0
0,2877,3040,-1,1,0
0,2878,5660,-1,1,0
0,2879,1530,-1,1,0
0,2880,2580,-1,1,0
0,2881,4890,-1,1,0
0,2882,740,1,1,0
0,2883,5410,-1,1,0
0,2884,3230,-1,1,0
0,2885,7730,-1,1,0
0,2886,4170,1,1,0
0,2887,2290,-1,1,0
0,2888,3790,-1,1,0
0,2889,630,-1,1,0
0,2890,930,-1,1,0
0,2891,990,-1,1,0
0,2892,780,-1,1,0
0,2893,2910,-1,1,0
0,2894,970,-1,1,0
0,2895,8350,-1,1,0
0,2896,8820,-1,1,0
0,2897,3330,-1,1,0
0,2898,7150,1,1,0
0,2899,2890,-1,1,0
0,2900,1840,1,1,0
0,2901,1460,-1,1,0
0,2902,2710,-1,1,0
0,2903,4180,-1,1,0
0,2904,1580,-1,1,0
0,2905,1420,-1,1,0
0,2906,810,-1,1,0
0,2907,2470,-1,1,0
0,2908,780,-1,1,0
0,2909,2310,-1,1,0
0,2910,2050,-1,1,0
0,2911,8690,-1,1,0
0,2912,3070,-1,1,0
0,2913,3440,-1,1,0
0,2914,2460,-1,1,0
0,2915,5850,-1,1,0
0,2916,2450,1,1,0
0,2917,810,-1,1,0
0,2918,520,-1,1,0
0,2919,4450,-1,1,0
0,2920,4490,-1,1,0
0,2921,3360,-1,1,0
0,2922,3880,-1,1,0
0,2923,1100,1,1,0
0,2924,3930,-1,1,0
0,2925,3320,-1,1,0
0,2926,710,-1,1,0
0,2927,1090,-1,1,0
0,2928,6160,-1,1,0
0,2929,5820,-1,1,0
0,2930,770,-1,1,0
0,2931,1570,-1,1,0
0,2932,2560,-1,1,0
0,2933,1940,-1,1,0
0,2934,2470,-1,1,0
0,2935,3240,1,1,0
0,2936,4890,-1,1,0
0,2937,10370,-1,1,0
0,2938,700,1,1,0
0,2939,2700,-1,1,0
0,2940,8380,-1,1,0
0,2941,2690,-1,1,0
0,2942,1880,-1,1,0
0,2943,2330,-1,1,0
0,2944,3770,-1,1,0
0,2945,5100,-1,1,0
0,2946,3350,1,1,0
0,2947,760,-1,1,0
0,2948,5560,-1,1,0
0,2949,5930,1,1,0
0,2950,2320,-1,1,0
0,2951,6040,1,1,0
0,2952,2790,-1,1,0
0,2953,750,-1,1,0
0,2954,5220,1,1,0
0,2955,3170,-1,1,0
0,2956,1490,-1,1,0
0,2957,2980,-1,1,0
0,2958,2080,1,1,0
0,2959,1780,-1,1,0
0,2960,4110,-1,1,0
0,2961,2220,-1,1,0
0,2962,1870,-1,1,0
0,2963,1910,-1,1,0
0,2964,5070,-1,1,0
0,2965,2650,-1,1,0
0,2966,1480,-1,1,0
0,2967,3210,-1,1,0
0,2968,3030,-1,1,0
0,2969,7470,-1,1,0
0,2970,1680,1,1,0
0,2971,3960,1,1,0
0,2972,2630,-1,1,0
0,2973,6220,1,1,0
0,2974,6360,1,1,0
0,2975,1170,-1,1,0
0,2976,5170,-1,1,0
0,2977,850,-1,1,0
0,2978,5070,-1,1,0
0,2979,760,-1,1,0
0,2980,2000,-1,1,0
0,2981,3640,-1,1,0
0,2982,1750,-1,1,0
0,2983,1260,-1,1,0
0,2984,5080,-1,1,0
0,2985,2280,-1,1,0
0,2986,4670,-1,1,0
0,2987,5380,-1,1,0
0,2988,4930,-1,1,0
0,2989,2270,-1,1,0
0,2990,2980,-1,1,0
0,2991,5090,-1,1,0
0,2992,1520,-1,1,0
0,2993,1360,-1,1,0
0,2994,1850,1,1,0
0,2995,3350,1,1,0
0,2996,1080,1,1,0
0,2997,6280,-1,1,0
0,2998,7060,-1,1,0
0,2999,4340,-1,1,0
0,3000,500,-1,1,0
0,3001,2950,-1,1,0
0,3002,1590,-1,1,0
0,3003,7610,-1,1,0
0,3004,2620,-1,1,0
0,3005,2290,-1,1,0
0,3006,2950,-1,1,0
0,3007,2780,-1,1,0
0,3008,1710,-1,1,0
0,3009,9700,-1,1,0
0,3010,1620,-1,1,0
0,3011,1150,-1,1,0
0,3012,1070,1,1,0
0,3013,1210,-1,1,0
0,3014,670,-1,1,0
0,3015,860,-1,1,0
0,3016,1520,-1,1,0
0,3017,3180,-1,1,0
0,3018,4220,-1,1,0
0,3019,4520,1,1,0
0,3020,3560,1,1,0
0,3021,4290,1,1,0
0,3022,3580,1,1,0
0,3023,3990,-1,1,0
0,3024,1860,-1,1,0
0,3025,9030,-1,1,0
0,3026,1490,-1,1,0
0,3027,1450,1,1,0
0,3028,1760,-1,1,0
0,3029,1570,1,1,0
0,3030,3430,-1,1,0
0,3031,5630,-1,1,0
0,3032,2320,-1,1,0
0,3033,1280,-1,1,0
0,3034,330,-1,1,0
0,3035,3060,-1,1,0
0,3036,820,-1,1,0
0,3037,810,-1,1,0
0,3038,2340,-1,1,0
0,3039,2060,-1,1,0
0,3040,3180,-1,1,0
0,3041,4250,-1,1,0
0,3042,490,-1,1,0
0,3043,3230,-1,1,0
0,3044,6790,-1,1,0
0,3045,840,-1,1,0
0,3046,950,-1,1,0
0,3047,3200,-1,1,0
0,3048,630,-1,1,0
0,3049,420,1,1,0
0,3050,1330,-1,1,0
0,3051,2720,1,1,0
0,3052,1530,-1,1,0
0,3053,6310,-1,1,0
0,3054,7160,-1,1,0
0,3055,3090,-1,1,0
0,3056,1170,-1,1,0
0,3057,1330,-1,1,0
0,3058,1570,-1,1,0
0,3059,3100,-1,1,0
0,3060,880,-1,1,0
0,3061,550,-1,1,0
0,3062,1790,-1,1,0
0,3063,2870,-1,1,0
0,3064,1120,-1,1,0
0,3065,5840,-1,1,0
0,3066,3140,-1,1,0
0,3067,980,-1,1,0
0,3068,2360,-1,1,0
0,3069,3130,-1,1,0
0,3070,3810,-1,1,0
0,3071,880,-1,1,0
0,3072,950,-1,1,0
0,3073,850,-1,1,0
0,3074,4030,-1,1,0
0,3075,2570,-1,1,0
0,3076,2870,-1,1,0
0,3077,3830,-1,1,0
0,3078,2300,1,1,0
0,3079,2590,-1,1,0
0,3080,2010,-1,1,0
0,3081,5180,-1,1,0
0,3082,1320,-1,1,0
0,3083,770,-1,1,0
0,3084,2200,-1,1,0
0,3085,4560,-1,1,0
0,3086,2050,-1,1,0
0,3087,2170,1,1,0
0,3088,4960,-1,1,0
0,3089,1300,-1,1,0
0,3090,3000,-1,1,0
0,3091,9170,-1,1,0
0,3092,2400,-1,1,0
0,3093,2130,-1,1,0
0,3094,1380,1,1,0
0,3095,3610,-1,1,0
0,3096,1050,-1,1,0
0,3097,4310,-1,1,0
0,3098,2610,-1,1,0
0,3099,1990,-1,1,0
0,3100,1060,-1,1,0
0,3101,3160,-1,1,0
0,3102,1640,-1,1,0
0,3103,1570,-1,1,0
0,3104,2980,-1,1,0
0,3105,640,-1,1,0
0,3106,8350,-1,1,0
0,3107,910,-1,1,0
0,3108,1640,-1,1,0
0,3109,2200,-1,1,0
0,3110,700,-1,1,0
0,3111,5590,-1,1,0
0,3112,5130,-1,1,0
0,3113,1250,-1,1,0
0,3114,3780,1,1,0
0,3115,2460,-1,1,0
0,3116,13370,-1,1,0
0,3117,1250,-1,1,0
0,3118,2120,-1,1,0
0,3119,2370,-1,1,0
0,3120,1010,-1,1,0
0,3121,2260,-1,1,0
0,3122,3810,-1,1,0
0,3123,2840,-1,1,0
0,3124,1660,-1,1,0
0,3125,2450,-1,1,0
0,3126,1920,-1,1,0
0,3127,2020,-1,1,0
0,3128,1790,-1,1,0
0,3129,3570,-1,1,0
0,3130,2670,-1,1,0
0,3131,1220,-1,1,0
0,3132,1710,-1,1,0
0,3133,3530,-1,1,0
0,3134,4300,-1,1,0
0,3135,5150,-1,1,0
0,3136,2000,1,1,0
0,3137,1640,-1,1,0
0,3138,8220,-1,1,0
0,3139,2000,-1,1,0
0,3140,2510,-1,1,0
0,3141,1470,-1,1,0
0,3142,1440,-1,1,0
0,3143,4290,-1,1,0
0,3144,2970,-1,1,0
0,3145,1770,-1,1,0
0,3146,1830,1,1,0
0,3147,1770,-1,1,0
0,3148,450,-1,1,0
0,3149,680,-1,1,0
0,3150,1860,-1,1,0
0,3151,7050,-1,1,0
0,3152,930,-1,1,0
0,3153,1130,1,1,0
0,3154,6350,-1,1,0
0,3155,1350,1,1,0
0,3156,3300,-1,1,0
0,3157,3470,1,1,0
0,3158,1290,-1,1,0
0,3159,1080,-1,1,0
0,3160,2330,1,1,0
0,3161,7130,1,1,0
0,3162,9200,-1,1,0
0,3163,3410,-1,1,0
0,3164,7110,-1,1,0
0,3165,1550,-1,1,0
0,3166,1410,-1,1,0
0,3167,5820,-1,1,0
0,3168,6920,-1,1,0
0,3169,1910,1,1,0
0,3170,5940,-1,1,0
0,3171,11050,-1,1,0
0,3172,3130,-1,1,0
0,3173,2960,-1,1,0
0,3174,750,-1,1,0
0,3175,1370,-1,1,0
0,3176,3520,1,1,0
0,3177,760,-1,1,0
0,3178,570,-1,1,0
0,3179,1210,-1,1,0
0,3180,2370,-1,1,0
0,3181,1710,-1,1,0
0,3182,4420,-1,1,0
0,3183,1810,-1,1,0
0,3184,1880,1,1,0
0,3185,3150,-1,1,0
0,3186,1250,-1,1,0
0,3187,700,-1,1,0
0,3188,4550,-1,1,0
0,3189,2810,-1,1,0
0,3190,8950,-1,1,0
0,3191,1940,1,1,0
0,3192,5650,-1,1,0
0,3193,2180,-1,1,0
0,3194,2950,1,1,0
0,3195,4450,-1,1,0
0,3196,3350,-1,1,0
0,3197,480,-1,1,0
0,3198,5590,-1,1,0
0,3199,4570,-1,1,0
0,3200,3020,1,-1,-1
0,3201,2020,-1,-1,-1
0,3202,2240,1,-1,-1
0,3203,1990,-1,-1,-1
0,3204,4260,-1,-1,-1
0,3205,1820,-1,-1,-1
0,3206,1870,-1,-1,-1
0,3207,2600,-1,-1,-1
0,3208,1110,1,-1,-1
0,3209,4960,1,-1,-1
0,3210,780,-1,-1,-1
0,3211,2170,1,-1,-1
0,3212,6080,-1,-1,-1
0,3213,6650,-1,-1,-1
0,3214,2570,-1,-1,-1
0,3215,1570,-1,-1,-1
0,3216,6990,1,-1,-1
0,3217,3050,-1,-1,-1
0,3218,8330,1,-1,-1
0,3219,4990,-1,-1,-1
0,3220,3990,-1,-1,-1
0,3221,3200,1,-1,-1
0,3222,9510,1,-1,-1
0,3223,3220,-1,-1,-1
0,3224,2010,-1,-1,-1
0,3225,4560,1,-1,-1
0,3226,2300,-1,-1,-1
0,3227,16720,-1,-1,-1
0,3228,2120,-1,-1,-1
0,3229,2910,-1,-1,-1
0,3230,11420,-1,-1,-1
0,3231,1590,1,-1,-1
0,3232,3130,-1,-1,-1
0,3233,2510,-1,-1,-1
0,3234,9870,-1,-1,-1
0,3235,4380,1,-1,-1
0,3236,1650,-1,-1,-1
0,3237,1490,1,-1,-1
0,3238,750,1,-1,-1
0,3239,2190,1,-1,-1
0,3240,1640,-1,-1,-1
0,3241,4290,-1,-1,-1
0,3242,2380,-1,-1,-1
0,3243,2420,-1,-1,-1
0,3244,860,-1,-1,-1
0,3245,3390,-1,-1,-1
0,3246,3700,-1,-1,-1
0,3247,2230,-1,-1,-1
0,3248,6660,1,-1,-1
0,3249,950,1,-1,-1
0,3250,1310,-1,-1,-1
0,3251,3360,1,-1,-1
0,3252,3340,-1,-1,-1
0,3253,1210,1,-1,-1
0,3254,3240,1,-1,-1
0,3255,16150,1,-1,-1
0,3256,5540,1,-1,-1
0,3257,4760,-1,-1,-1
0,3258,9940,1,-1,-1
0,3259,3070,-1,-1,-1
0,3260,5810,-1,-1,-1
0,3261,3590,-1,-1,-1
0,3262,1510,1,-1,-1
0,3263,1600,-1,-1,-1
0,3264,2010,1,-1,-1
0,3265,11720,1,-1,-1
0,3266,2290,1,-1,-1
0,3267,690,-1,-1,-1
0,3268,4140,-1,-1,-1
0,3269,1210,-1,-1,-1
0,3270,3030,1,-1,-1
0,3271,2100,1,-1,-1
0,3272,1390,1,-1,-1
0,3273,1220,-1,-1,-1
0,3274,2950,-1,-1,-1
0,3275,6240,1,-1,-1
0,3276,4720,1,-1,-1
0,3277,6920,1,-1,-1
0,3278,16890,1,-1,-1
0,3279,6570,-1,-1,-1
0,3280,1740,-1,-1,-1
0,3281,9390,-1,-1,-1
0,3282,12480,1,-1,-1
0,3283,1880,-1,-1,-1
0,3284,1560,1,-1,-1
0,3285,2410,-1,-1,-1
0,3286,1290,-1,-1,-1
0,3287,4310,1,-1,-1
0,3288,15730,-1,-1,-1
0,3289,2990,1,-1,-1
0,3290,1300,1,-1,-1
0,3291,8720,-1,-1,-1
0,3292,970,1,-1,-1
0,3293,510,-1,-1,-1
0,3294,3820,-1,-1,-1
0,3295,530,-1,-1,-1
0,3296,10200,-1,-1,-1
0,3297,1130,-1,-1,-1
0,3298,2440,-1,-1,-1
0,3299,8350,1,-1,-1
0,3300,2150,1,-1,-1
0,3301,6560,-1,-1,-1
0,3302,13450,-1,-1,-1
0,3303,1460,-1,-1,-1
0,3304,1390,1,-1,-1
0,3305,1800,1,-1,-1
0,3306,3070,1,-1,-1
0,3307,27020,1,-1,-1
0,3308,3250,1,-1,-1
0,3309,1910,1,-1,-1
0,3310,10450,1,-1,-1
0,3311,3330,1,-1,-1
0,3312,16120,1,-1,-1
0,3313,15830,1,-1,-1
0,3314,11180,-1,-1,-1
0,3315,5030,-1,-1,-1
0,3316,1080,1,-1,-1
0,3317,4530,-1,-1,-1
0,3318,4160,1,-1,-1
0,3319,2430,-1,-1,-1
0,3320,3850,-1,-1,-1
0,3321,3660,-1,-1,-1
0,3322,8080,1,-1,-1
0,3323,7770,-1,-1,-1
0,3324,2060,-1,-1,-1
0,3325,11300,1,-1,-1
0,3326,1700,-1,-1,-1
0,3327,500,1,-1,-1
0,3328,2590,-1,-1,-1
0,3329,1390,-1,-1,-1
0,3330,9080,-1,-1,-1
0,3331,3060,-1,-1,-1
0,3332,930,1,-1,-1
0,3333,1590,1,-1,-1
0,3334,3380,1,-1,-1
0,3335,5460,-1,-1,-1
0,3336,5010,-1,-1,-1
0,3337,5280,-1,-1,-1
0,3338,6330,-1,-1,-1
0,3339,14720,1,-1,-1
0,3340,4920,1,-1,-1
0,3341,5720,-1,-1,-1
0,3342,4040,-1,-1,-1
0,3343,3170,-1,-1,-1
0,3344,4670,1,-1,-1
0,3345,5410,-1,-1,-1
0,3346,2850,1,-1,-1
0,3347,1860,-1,-1,-1
0,3348,900,-1,-1,-1
0,3349,5210,-1,-1,-1
0,3350,3900,1,-1,-1
0,3351,6820,1,-1,-1
0,3352,2060,1,-1,-1
0,3353,3680,1,-1,-1
0,3354,3620,1,-1,-1
0,3355,14990,-1,-1,-1
0,3356,1450,1,-1,-1
0,3357,2230,-1,-1,-1
0,3358,9220,-1,-1,-1
0,3359,4530,1,-1,-1
0,3360,520,1,-1,-1
0,3361,7440,-1,-1,-1
0,3362,890,-1,-1,-1
0,3363,5370,1,-1,-1
0,3364,3720,1,-1,-1
0,3365,2570,-1,-1,-1
0,3366,2460,1,-1,-1
0,3367,7330,1,-1,-1
0,3368,7960,1,-1,-1
0,3369,3020,-1,-1,-1
0,3370,1920,-1,-1,-1
0,3371,2330,1,-1,-1
0,3372,3210,-1,-1,-1
0,3373,1840,1,-1,-1
0,3374,3020,-1,-1,-1
0,3375,1590,-1,-1,-1
0,3376,3750,-1,-1,-1
0,3377,9980,1,-1,-1
0,3378,1290,-1,-1,-1
0,3379,2990,1,-1,-1
0,3380,3310,-1,-1,-1
0,3381,590,-1,-1,-1
0,3382,780,1,-1,-1
0,3383,3410,1,-1,-1
0,3384,5080,1,-1,-1
0,3385,8720,1,-1,-1
0,3386,1540,-1,-1,-1
0,3387,3650,-1,-1,-1
0,3388,10320,1,-1,-1
0,3389,3790,1,-1,-1
0,3390,3860,1,-1,-1
0,3391,1280,-1,-1,-1
0,3392,6380,1,-1,-1
0,3393,3660,1,-1,-1
0,3394,1140,-1,-1,-1
0,3395,7860,-1,-1,-1
0,3396,7430,1,-1,-1
0,3397,1080,-1,-1,-1
0,3398,4220,1,-1,-1
0,3399,6280,-1,-1,-1
0,3400,4430,-1,-1,-1
0,3401,8260,1,-1,-1
0,3402,1960,-1,-1,-1
0,3403,4360,1,-1,-1
0,3404,1580,-1,-1,-1
0,3405,1920,-1,-1,-1
0,3406,1560,1,-1,-1
0,3407,1460,-1,-1,-1
0,3408,3790,-1,-1,-1
0,3409,2640,-1,-1,-1
0,3410,3750,-1,-1,-1
0,3411,1640,1,-1,-1
0,3412,2360,1,-1,-1
0,3413,2540,-1,-1,-1
0,3414,8200,-1,-1,-1
0,3415,11220,1,-1,-1
0,3416,4740,1,-1,-1
0,3417,710,-1,-1,-1
0,3418,4180,-1,-1,-1
0,3419,5290,-1,-1,-1
0,3420,9820,-1,-1,-1
0,3421,1150,1,-1,-1
0,3422,6480,1,-1,-1
0,3423,1260,-1,-1,-1
0,3424,7210,-1,-1,-1
0,3425,1900,-1,-1,-1
0,3426,1130,-1,-1,-1
0,3427,570,1,-1,-1
0,3428,4360,-1,-1,-1
0,3429,5160,-1,-1,-1
0,3430,4220,1,-1,-1
0,3431,2560,-1,-1,-1
0,3432,1200,-1,-1,-1
0,3433,370,-1,-1,-1
0,3434,1400,1,-1,-1
0,3435,1460,-1,-1,-1
0,3436,4210,1,-1,-1
0,3437,1710,1,-1,-1
0,3438,1900,1,-1,-1
0,3439,1340,-1,-1,-1
0,3440,1120,1,-1,-1
0,3441,6460,1,-1,-1
0,3442,3190,-1,-1,-1
0,3443,7250,1,-1,-1
0,3444,5850,-1,-1,-1
0,3445,790,-1,-1,-1
0,3446,7200,-1,-1,-1
0,3447,550,-1,-1,-1
0,3448,1030,-1,-1,-1
0,3449,5870,1,-1,-1
0,3450,3630,-1,-1,-1
0,3451,4720,1,-1,-1
0,3452,5490,-1,-1,-1
0,3453,4750,1,-1,-1
0,3454,12700,1,-1,-1
0,3455,1980,-1,-1,-1
0,3456,1940,-1,-1,-1
0,3457,1550,-1,-1,-1
0,3458,2140,1,-1,-1
0,3459,3740,-1,-1,-1
0,3460,5410,-1,-1,-1
0,3461,1420,-1,-1,-1
0,3462,8260,-1,-1,-1
0,3463,1270,1,-1,-1
0,3464,930,-1,-1,-1
0,3465,1050,-1,-1,-1
0,3466,10000,-1,-1,-1
0,3467,2640,-1,-1,-1
0,3468,5290,-1,-1,-1
0,3469,2610,-1,-1,-1
0,3470,1720,-1,-1,-1
0,3471,1430,-1,-1,-1
0,3472,5170,-1,-1,-1
0,3473,550,-1,-1,-1
0,3474,1070,-1,-1,-1
0,3475,2630,-1,-1,-1
0,3476,1080,1,-1,-1
0,3477,2340,1,-1,-1
0,3478,3380,1,-1,-1
0,3479,2370,-1,-1,-1
0,3480,730,1,-1,-1
0,3481,1930,-1,-1,-1
0,3482,3850,1,-1,-1
0,3483,1110,1,-1,-1
0,3484,1140,1,-1,-1
0,3485,1870,-1,-1,-1
0,3486,1250,-1,-1,-1
0,3487,8990,-1,-1,-1
0,3488,1680,1,-1,-1
0,3489,2650,-1,-1,-1
0,3490,7000,-1,-1,-1
0,3491,3510,1,-1,-1
0,3492,5640,-1,-1,-1
0,3493,8210,1,-1,-1
0,3494,7860,-1,-1,-1
0,3495,3230,-1,-1,-1
0,3496,1590,1,-1,-1
0,3497,15370,-1,-1,-1
0,3498,3450,-1,-1,-1
0,3499,1710,-1,-1,-1
0,3500,660,-1,-1,-1
0,3501,3710,-1,-1,-1
0,3502,1630,1,-1,-1
0,3503,5670,-1,-1,-1
0,3504,12740,-1,-1,-1
0,3505,1910,1,-1,-1
0,3506,1790,1,-1,-1
0,3507,1350,1,-1,-1
0,3508,1570,-1,-1,-1
0,3509,2010,1,-1,-1
0,3510,960,-1,-1,-1
0,3511,9280,1,-1,-1
0,3512,5410,1,-1,-1
0,3513,3070,1,-1,-1
0,3514,4330,1,-1,-1
0,3515,5910,-1,-1,-1
0,3516,1580,-1,-1,-1
0,3517,4230,-1,-1,-1
0,3518,7250,1,-1,-1
0,3519,1540,-1,-1,-1
0,3520,2140,-1,-1,-1
0,3521,5680,1,-1,-1
0,3522,4510,-1,-1,-1
0,3523,2710,-1,-1,-1
0,3524,10160,1,-1,-1
0,3525,3970,1,-1,-1
0,3526,2590,1,-1,-1
0,3527,990,1,-1,-1
0,3528,1840,1,-1,-1
0,3529,6140,-1,-1,-1
0,3530,4070,-1,-1,-1
0,3531,2370,1,-1,-1
0,3532,9610,-1,-1,-1
0,3533,9000,1,-1,-1
0,3534,4360,-1,-1,-1
0,3535,540,-1,-1,-1
0,3536,670,1,-1,-1
0,3537,5180,1,-1,-1
0,3538,3060,-1,-1,-1
0,3539,1410,1,-1,-1
0,3540,3830,-1,-1,-1
0,3541,3490,-1,-1,-1
0,3542,2980,-1,-1,-1
0,3543,4940,-1,-1,-1
0,3544,750,-1,-1,-1
0,3545,1310,-1,-1,-1
0,3546,2510,-1,-1,-1
0,3547,2780,-1,-1,-1
0,3548,1280,-1,-1,-1
0,3549,1440,-1,-1,-1
0,3550,1150,1,-1,-1
0,3551,3860,-1,-1,-1
0,3552,1970,-1,-1,-1
0,3553,1670,-1,-1,-1
0,3554,3490,1,-1,-1
0,3555,5970,1,-1,-1
0,3556,10390,-1,-1,-1
0,3557,3850,-1,-1,-1
0,3558,2400,-1,-1,-1
0,3559,6810,1,-1,-1
0,3560,2540,1,-1,-1
0,3561,8000,-1,-1,-1
0,3562,1480,1,-1,-1
0,3563,1610,-1,-1,-1
0,3564,3930,1,-1,-1
0,3565,1910,1,-1,-1
0,3566,3320,-1,-1,-1
0,3567,2670,-1,-1,-1
0,3568,8090,-1,-1,-1
0,3569,3990,1,-1,-1
0,3570,4820,1,-1,-1
0,3571,1150,-1,-1,-1
0,3572,1520,-1,-1,-1
0,3573,8290,-1,-1,-1
0,3574,5150,1,-1,-1
0,3575,4750,-1,-1,-1
0,3576,14640,1,-1,-1
0,3577,1020,1,-1,-1
0,3578,1000,1,-1,-1
0,3579,1270,-1,-1,-1
0,3580,1510,-1,-1,-1
0,3581,3350,-1,-1,-1
0,3582,2710,-1,-1,-1
0,3583,2360,-1,-1,-1
0,3584,6620,-1,-1,-1
0,3585,5740,1,-1,-1
0,3586,1920,-1,-1,-1
0,3587,1820,-1,-1,-1
0,3588,2990,1,-1,-1
0,3589,2160,-1,-1,-1
0,3590,3720,-1,-1,-1
0,3591,13740,-1,-1,-1
0,3592,2860,-1,-1,-1
0,3593,7700,-1,-1,-1
0,3594,3460,-1,-1,-1
0,3595,1910,-1,-1,-1
0,3596,790,-1,-1,-1
0,3597,5900,1,-1,-1
0,3598,3260,-1,-1,-1
0,3599,6150,1,-1,-1
0,3600,2390,-1,1,0
0,3601,3260,-1,1,0
0,3602,4750,-1,1,0
0,3603,3620,-1,1,0
0,3604,8820,-1,1,0
0,3605,4650,-1,1,0
0,3606,510,1,1,0
0,3607,2220,-1,1,0
0,3608,7360,-1,1,0
0,3609,1670,-1,1,0
0,3610,7730,-1,1,0
0,3611,910,1,1,0
0,3612,7070,1,1,0
0,3613,14280,-1,1,0
0,3614,2670,-1,1,0
0,3615,5970,-1,1,0
0,3616,2600,-1,1,0
0,3617,8440,-1,1,0
0,3618,7790,-1,1,0
0,3619,1920,-1,1,0
0,3620,3540,-1,1,0
0,3621,2580,-1,1,0
0,3622,1830,-1,1,0
0,3623,5020,1,1,0
0,3624,6770,1,1,0
0,3625,10380,-1,1,0
0,3626,2810,-1,1,0
0,3627,6380,-1,1,0
0,3628,940,-1,1,0
0,3629,1570,-1,1,0
0,3630,6000,-1,1,0
0,3631,3010,1,1,0
0,3632,2320,-1,1,0
0,3633,2990,1,1,0
0,3634,9000,-1,1,0
0,3635,3010,1,1,0
0,3636,3490,-1,1,0
0,3637,7000,-1,1,0
0,3638,2220,-1,1,0
0,3639,5720,1,1,0
0,3640,4720,-1,1,0
0,3641,5530,1,1,0
0,3642,1660,1,1,0
0,3643,3160,-1,1,0
0,3644,2470,-1,1,0
0,3645,4200,-1,1,0
0,3646,1210,-1,1,0
0,3647,1440,-1,1,0
0,3648,1730,-1,1,0
0,3649,1020,-1,1,0
0,3650,10040,-1,1,0
0,3651,820,1,1,0
0,3652,2050,-1,1,0
0,3653,7780,-1,1,0
0,3654,3680,1,1,0
0,3655,5390,-1,1,0
0,3656,430,-1,1,0
0,3657,1540,-1,1,0
0,3658,2640,-1,1,0
0,3659,4680,-1,1,0
0,3660,3640,-1,1,0
0,3661,1480,1,1,0
0,3662,9770,-1,1,0
0,3663,4150,-1,1,0
0,3664,4430,1,1,0
0,3665,1560,1,1,0
0,3666,880,-1,1,0
0,3667,910,-1,1,0
0,3668,540,-1,1,0
0,3669,2650,1,1,0
0,3670,1670,-1,1,0
0,3671,3640,-1,1,0
0,3672,920,-1,1,0
0,3673,8940,1,1,0
0,3674,6270,1,1,0
0,3675,7080,-1,1,0
0,3676,5840,-1,1,0
0,3677,7490,-1,1,0
0,3678,5300,-1,1,0
0,3679,750,-1,1,0
0,3680,4990,-1,1,0
0,3681,1100,1,1,0
0,3682,4010,-1,1,0
0,3683,2100,-1,1,0
0,3684,1280,1,1,0
0,3685,1190,-1,1,0
0,3686,2180,-1,1,0
0,3687,1770,-1,1,0
0,3688,1930,1,1,0
0,3689,1610,-1,1,0
0,3690,1920,-1,1,0
0,3691,4920,1,1,0
0,3692,2310,-1,1,0
0,3693,1530,-1,1,0
0,3694,6840,1,1,0
0,3695,3460,1,1,0
0,3696,2410,1,1,0
0,3697,1490,1,1,0
0,3698,2960,-1,1,0
0,3699,1560,-1,1,0
0,3700,2370,-1,1,0
0,3701,3720,-1,1,0
0,3702,1080,-1,1,0
0,3703,9480,1,1,0
0,3704,4050,-1,1,0
0,3705,2870,-1,1,0
0,3706,8320,-1,1,0
0,3707,1090,-1,1,0
0,3708,3730,-1,1,0
0,3709,1440,-1,1,0
0,3710,1050,1,1,0
0,3711,7910,-1,1,0
0,3712,1710,1,1,0
0,3713,2090,-1,1,0
0,3714,3210,1,1,0
0,3715,3480,-1,1,0
0,3716,2230,1,1,0
0,3717,1400,-1,1,0
0,3718,1650,-1,1,0
0,3719,3850,-1,1,0
0,3720,690,-1,1,0
0,3721,970,-1,1,0
0,3722,5420,-1,1,0
0,3723,3680,-1,1,0
0,3724,7750,1,1,0
0,3725,1480,-1,1,0
0,3726,1010,-1,1,0
0,3727,3470,-1,1,0
0,3728,1770,1,1,0
0,3729,3540,-1,1,0
0,3730,9210,1,1,0
0,3731,1630,-1,1,0
0,3732,1840,-1,1,0
0,3733,3670,-1,1,0
0,3734,3160,-1,1,0
0,3735,6020,-1,1,0
0,3736,1130,-1,1,0
0,3737,10810,-1,1,0
0,3738,1550,-1,1,0
0,3739,860,1,1,0
0,3740,1110,-1,1,0
0,3741,5880,-1,1,0
0,3742,2370,1,1,0
0,3743,4250,1,1,0
0,3744,2020,1,1,0
0,3745,3010,-1,1,0
0,3746,1760,-1,1,0
0,3747,4860,-1,1,0
0,3748,8300,1,1,0
0,3749,4940,1,1,0
0,3750,6670,1,1,0
0,3751,5140,1,1,0
0,3752,1360,-1,1,0
0,3753,1440,-1,1,0
0,3754,2440,-1,1,0
0,3755,1060,1,1,0
0,3756,2050,1,1,0
0,3757,770,-1,1,0
0,3758,6330,-1,1,0
0,3759,3700,-1,1,0
0,3760,3300,1,1,0
0,3761,2230,-1,1,0
0,3762,9740,-1,1,0
0,3763,810,-1,1,0
0,3764,2380,1,1,0
0,3765,3180,-1,1,0
0,3766,1800,-1,1,0
0,3767,2170,-1,1,0
0,3768,1100,-1,1,0
0,3769,5290,-1,1,0
0,3770,690,-1,1,0
0,3771,820,-1,1,0
0,3772,6150,-1,1,0
0,3773,8350,-1,1,0
0,3774,2720,-1,1,0
0,3775,5700,-1,1,0
0,3776,2900,1,1,0
0,3777,2940,1,1,0
0,3778,3830,-1,1,0
0,3779,2420,-1,1,0
0,3780,2140,-1,1,0
0,3781,20800,-1,1,0
0,3782,3390,-1,1,0
0,3783,7090,1,1,0
0,3784,2310,-1,1,0
0,3785,1890,-1,1,0
0,3786,1780,1,1,0
0,3787,1880,-1,1,0
0,3788,9050,-1,1,0
0,3789,1510,1,1,0
0,3790,6130,-1,1,0
0,3791,1610,-1,1,0
0,3792,830,1,1,0
0,3793,2770,-1,1,0
0,3794,5200,-1,1,0
0,3795,2080,-1,1,0
0,3796,730,-1,1,0
0,3797,1660,-1,1,0
0,3798,2180,1,1,0
0,3799,1950,1,1,0
0,3800,3230,1,1,0
0,3801,10380,-1,1,0
0,3802,3330,-1,1,0
0,3803,5980,-1,1,0
0,3804,4320,-1,1,0
0,3805,2900,-1,1,0
0,3806,2230,1,1,0
0,3807,3700,-1,1,0
0,3808,13210,-1,1,0
0,3809,10540,-1,1,0
0,3810,6110,-1,1,0
0,3811,5400,-1,1,0
0,3812,2700,1,1,0
0,3813,6550,-1,1,0
0,3814,2440,-1,1,0
0,3815,1620,-1,1,0
0,3816,850,-1,1,0
0,3817,3090,-1,1,0
0,3818,14080,-1,1,0
0,3819,2340,-1,1,0
0,3820,2410,-1,1,0
0,3821,2140,-1,1,0
0,3822,7850,-1,1,0
0,3823,2910,-1,1,0
0,3824,3430,-1,1,0
0,3825,3570,1,1,0
0,3826,1680,-1,1,0
0,3827,4310,-1,1,0
0,3828,2560,-1,1,0
0,3829,4870,-1,1,0
0,3830,1770,-1,1,0
0,3831,1600,-1,1,0
0,3832,730,1,1,0
0,3833,2310,-1,1,0
0,3834,20820,-1,1,0
0,3835,3450,1,1,0
0,3836,4140,1,1,0
0,3837,4900,-1,1,0
0,3838,1410,-1,1,0
0,3839,2160,-1,1,0
0,3840,3030,-1,1,0
0,3841,6240,-1,1,0
0,3842,2740,-1,1,0
0,3843,5340,-1,1,0
0,3844,6650,-1,1,0
0,3845,4740,1,1,0
0,3846,3350,-1,1,0
0,3847,3670,-1,1,0
0,3848,1620,1,1,0
0,3849,840,1,1,0
0,3850,5120,1,1,0
0,3851,4230,-1,1,0
0,3852,5250,1,1,0
0,3853,6540,1,1,0
0,3854,2230,-1,1,0
0,3855,3070,-1,1,0
0,3856,1660,-1,1,0
0,3857,750,-1,1,0
0,3858,5340,-1,1,0
0,3859,5050,-1,1,0
0,3860,1510,-1,1,0
0,3861,2090,1,1,0
0,3862,2910,-1,1,0
0,3863,5130,-1,1,0
0,3864,3720,-1,1,0
0,3865,1580,1,1,0
0,3866,14150,-1,1,0
0,3867,1000,-1,1,0
0,3868,5580,-1,1,0
0,3869,1350,-1,1,0
0,3870,1520,-1,1,0
0,3871,3720,1,1,0
0,3872,4410,-1,1,0
0,3873,1000,-1,1,0
0,3874,1880,-1,1,0
0,3875,1590,-1,1,0
0,3876,3470,-1,1,0
0,3877,750,-1,1,0
0,3878,1570,-1,1,0
0,3879,1230,1,1,0
0,3880,4970,1,1,0
0,3881,3710,-1,1,0
0,3882,7110,-1,1,0
0,3883,12770,1,1,0
0,3884,11750,-1,1,0
0,3885,11840,1,1,0
0,3886,5170,-1,1,0
0,3887,2060,-1,1,0
0,3888,12060,-1,1,0
0,3889,9050,-1,1,0
0,3890,3970,-1,1,0
0,3891,1980,-1,1,0
0,3892,18030,1,1,0
0,3893,5060,-1,1,0
0,3894,1210,1,1,0
0,3895,5210,-1,1,0
0,3896,860,-1,1,0
0,3897,6020,-1,1,0
0,3898,690,-1,1,0
0,3899,1480,-1,1,0
0,3900,1930,-1,1,0
0,3901,2410,-1,1,0
0,3902,2400,-1,1,0
0,3903,1560,-1,1,0
0,3904,1910,-1,1,0
0,3905,6450,1,1,0
0,3906,1210,-1,1,0
0,3907,2440,-1,1,0
0,3908,10250,-1,1,0
0,3909,3130,1,1,0
0,3910,5220,-1,1,0
0,3911,3410,-1,1,0
0,3912,2710,-1,1,0
0,3913,3020,1,1,0
0,3914,1930,-1,1,0
0,3915,1270,-1,1,0
0,3916,2970,-1,1,0
0,3917,3190,-1,1,0
0,3918,3270,-1,1,0
0,3919,3960,-1,1,0
0,3920,2610,-1,1,0
0,3921,1230,-1,1,0
0,3922,2730,-1,1,0
0,3923,4190,-1,1,0
0,3924,3160,-1,1,0
0,3925,870,-1,1,0
0,3926,1020,1,1,0
0,3927,5770,1,1,0
0,3928,1190,1,1,0
0,3929,5640,-1,1,0
0,3930,2650,-1,1,0
0,3931,1260,-1,1,0
0,3932,12540,-1,1,0
0,3933,2200,-1,1,0
0,3934,940,1,1,0
0,3935,19740,1,1,0
0,3936,6270,1,1,0
0,3937,7730,-1,1,0
0,3938,3210,1,1,0
0,3939,8870,-1,1,0
0,3940,3510,1,1,0
0,3941,5090,1,1,0
0,3942,8820,-1,1,0
0,3943,1770,-1,1,0
0,3944,4970,-1,1,0
0,3945,7240,-1,1,0
0,3946,2960,-1,1,0
0,3947,8440,1,1,0
0,3948,2350,1,1,0
0,3949,3560,-1,1,0
0,3950,1210,-1,1,0
0,3951,7680,-1,1,0
0,3952,2250,-1,1,0
0,3953,16450,1,1,0
0,3954,7610,-1,1,0
0,3955,2650,1,1,0
0,3956,2510,1,1,0
0,3957,2410,1,1,0
0,3958,1070,-1,1,0
0,3959,690,-1,1,0
0,3960,1430,-1,1,0
0,3961,4040,1,1,0
0,3962,5670,1,1,0
0,3963,2850,1,1,0
0,3964,1450,-1,1,0
0,3965,3010,-1,1,0
0,3966,1790,-1,1,0
0,3967,1620,1,1,0
0,3968,910,1,1,0
0,3969,3440,-1,1,0
0,3970,5250,-1,1,0
0,3971,7580,-1,1,0
0,3972,3870,-1,1,0
0,3973,710,1,1,0
0,3974,740,-1,1,0
0,3975,1950,1,1,0
0,3976,3510,-1,1,0
0,3977,1720,-1,1,0
0,3978,9060,-1,1,0
0,3979,5370,1,1,0
0,3980,3330,-1,1,0
0,3981,2880,-1,1,0
0,3982,730,-1,1,0
0,3983,6220,1,1,0
0,3984,5040,-1,1,0
0,3985,4230,-1,1,0
0,3986,3180,-1,1,0
0,3987,10190,-1,1,0
0,3988,2730,1,1,0
0,3989,1630,1,1,0
0,3990,1160,-1,1,0
0,3991,1330,-1,1,0
0,3992,4750,1,1,0
0,3993,940,-1,1,0
0,3994,8110,-1,1,0
0,3995,7370,1,1,0
0,3996,6420,1,1,0
0,3997,8760,-1,1,0
0,3998,7440,-1,1,0
0,3999,5610,1,1,0
0,4000,2370,1,-1,-1
0,4001,3930,1,-1,-1
0,4002,6540,-1,-1,-1
0,4003,900,1,-1,-1
0,4004,2040,1,-1,-1
0,4005,3300,-1,-1,-1
0,4006,2100,-1,-1,-1
0,4007,1150,-1,-1,-1
0,4008,6720,-1,-1,-1
0,4009,16570,-1,-1,-1
0,4010,4760,-1,-1,-1
0,4011,7090,1,-1,-1
0,4012,4490,1,-1,-1
0,4013,2470,1,-1,-1
0,4014,410,1,-1,-1
0,4015,870,1,-1,-1
0,4016,1860,1,-1,-1
0,4017,1120,1,-1,-1
0,4018,4540,-1,-1,-1
0,4019,1470,1,-1,-1
0,4020,2260,-1,-1,-1
0,4021,980,1,-1,-1
0,4022,1390,1,-1,-1
0,4023,3560,1,-1,-1
0,4024,2320,1,-1,-1
0,4025,2880,1,-1,-1
0,4026,4060,1,-1,-1
0,4027,7000,-1,-1,-1
0,4028,12320,1,-1,-1
0,4029,2770,-1,-1,-1
0,4030,1650,-1,-1,-1
0,4031,6190,1,-1,-1
0,4032,1470,1,-1,-1
0,4033,1760,1,-1,-1
0,4034,980,1,-1,-1
0,4035,1620,-1,-1,-1
0,4036,2610,1,-1,-1
0,4037,1630,1,-1,-1
0,4038,2400,-1,-1,-1
0,4039,980,-1,-1,-1
0,4040,3370,1,-1,-1
0,4041,3430,-1,-1,-1
0,4042,1810,-1,-1,-1
0,4043,4560,1,-1,-1
0,4044,3000,1,-1,-1
0,4045,3410,1,-1,-1
0,4046,1210,1,-1,-1
0,4047,1240,1,-1,-1
0,4048,900,-1,-1,-1
0,4049,5630,-1,-1,-1
0,4050,3430,1,-1,-1
0,4051,2180,1,-1,-1
0,4052,4820,1,-1,-1
0,4053,3190,1,-1,-1
0,4054,1200,-1,-1,-1
0,4055,1110,1,-1,-1
0,4056,5670,-1,-1,-1
0,4057,7190,1,-1,-1
0,4058,4870,1,-1,-1
0,4059,3190,-1,-1,-1
0,4060,2940,-1,-1,-1
0,4061,3260,-1,-1,-1
0,4062,5710,1,-1,-1
0,4063,4970,1,-1,-1
0,4064,2290,1,-1,-1
0,4065,8020,-1,-1,-1
0,4066,5770,-1,-1,-1
0,4067,1470,1,-1,-1
0,4068,1810,1,-1,-1
0,4069,5170,-1,-1,-1
0,4070,2160,-1,-1,-1
0,4071,17430,1,-1,-1
0,4072,5870,1,-1,-1
0,4073,2170,-1,-1,-1
0,4074,1980,1,-1,-1
0,4075,1140,1,-1,-1
0,4076,960,-1,-1,-1
0,4077,2570,1,-1,-1
0,4078,780,1,-1,-1
0,4079,1620,1,-1,-1
0,4080,6410,1,-1,-1
0,4081,2790,1,-1,-1
0,4082,4840,-1,-1,-1
0,4083,5010,-1,-1,-1
0,4084,2300,1,-1,-1
0,4085,2390,1,-1,-1
0,4086,3540,1,-1,-1
0,4087,2760,1,-1,-1
0,4088,3300,-1,-1,-1
0,4089,7360,1,-1,-1
0,4090,3400,1,-1,-1
0,4091,1220,-1,-1,-1
0,4092,1890,1,-1,-1
0,4093,5430,-1,-1,-1
0,4094,6610,-1,-1,-1
0,4095,1470,-1,-1,-1
0,4096,2250,1,-1,-1
0,4097,1480,1,-1,-1
0,4098,2570,-1,-1,-1
0,4099,6930,-1,-1,-1
0,4100,2690,-1,-1,-1
0,4101,6310,1,-1,-1
0,4102,2000,-1,-1,-1
0,4103,4400,1,-1,-1
0,4104,1710,1,-1,-1
0,4105,9130,-1,-1,-1
0,4106,5270,1,-1,-1
0,4107,3520,-1,-1,-1
0,4108,3410,1,-1,-1
0,4109,3660,1,-1,-1
0,4110,2700,-1,-1,-1
0,4111,10160,1,-1,-1
0,4112,1730,1,-1,-1
0,4113,6990,1,-1,-1
0,4114,3370,1,-1,-1
0,4115,2060,1,-1,-1
0,4116,6030,-1,-1,-1
0,4117,1900,-1,-1,-1
0,4118,15670,-1,-1,-1
0,4119,4880,1,-1,-1
0,4120,6300,1,-1,-1
0,4121,850,1,-1,-1
0,4122,11580,-1,-1,-1
0,4123,5700,1,-1,-1
0,4124,870,1,-1,-1
0,4125,6790,-1,-1,-1
0,4126,1780,1,-1,-1
0,4127,840,-1,-1,-1
0,4128,550,-1,-1,-1
0,4129,2530,1,-1,-1
0,4130,2990,-1,-1,-1
0,4131,1940,1,-1,-1
0,4132,8850,1,-1,-1
0,4133,2780,-1,-1,-1
0,4134,1680,1,-1,-1
0,4135,3050,-1,-1,-1
0,4136,870,-1,-1,-1
0,4137,1370,1,-1,-1
0,4138,1200,-1,-1,-1
0,4139,13520,1,-1,-1
0,4140,4510,1,-1,-1
0,4141,4490,1,-1,-1
0,4142,1050,1,-1,-1
0,4143,9950,-1,-1,-1
0,4144,3240,1,-1,-1
0,4145,1310,-1,-1,-1
0,4146,8370,-1,-1,-1
0,4147,2350,-1,-1,-1
0,4148,2330,-1,-1,-1
0,4149,2940,-1,-1,-1
0,4150,570,1,-1,-1
0,4151,2150,1,-1,-1
0,4152,7580,1,-1,-1
0,4153,2910,-1,-1,-1
0,4154,820,-1,-1,-1
0,4155,750,1,-1,-1
0,4156,1540,1,-1,-1
0,4157,1750,1,-1,-1
0,4158,1670,1,-1,-1
0,4159,850,1,-1,-1
0,4160,2150,1,-1,-1
0,4161,1110,-1,-1,-1
0,4162,3090,1,-1,-1
0,4163,10390,1,-1,-1
0,4164,5700,-1,-1,-1
0,4165,2490,1,-1,-1
0,4166,11090,-1,-1,-1
0,4167,5350,1,-1,-1
0,4168,5670,1,-1,-1
0,4169,3470,1,-1,-1
0,4170,12350,-1,-1,-1
0,4171,2980,-1,-1,-1
0,4172,4540,1,-1,-1
0,4173,4240,1,-1,-1
0,4174,4880,-1,-1,-1
0,4175,4260,-1,-1,-1
0,4176,590,-1,-1,-1
0,4177,3100,-1,-1,-1
0,4178,3910,1,-1,-1
0,4179,580,1,-1,-1
0,4180,4430,-1,-1,-1
0,4181,1070,-1,-1,-1
0,4182,16940,1,-1,-1
0,4183,4330,1,-1,-1
0,4184,2380,1,-1,-1
0,4185,3280,1,-1,-1
0,4186,1780,-1,-1,-1
0,4187,3660,-1,-1,-1
0,4188,1680,-1,-1,-1
0,4189,2160,1,-1,-1
0,4190,2550,1,-1,-1
0,4191,1500,1,-1,-1
0,4192,3310,1,-1,-1
0,4193,9050,1,-1,-1
0,4194,1590,-1,-1,-1
0,4195,760,1,-1,-1
0,4196,3960,1,-1,-1
0,4197,3840,1,-1,-1
0,4198,1880,1,-1,-1
0,4199,25570,1,-1,-1
0,4200,7550,-1,-1,-1
0,4201,6190,1,-1,-1
0,4202,4720,-1,-1,-1
0,4203,2090,1,-1,-1
0,4204,4810,1,-1,-1
0,4205,2830,-1,-1,-1
0,4206,7300,1,-1,-1
0,4207,2550,-1,-1,-1
0,4208,7090,1,-1,-1
0,4209,3300,1,-1,-1
0,4210,13080,1,-1,-1
0,4211,6230,-1,-1,-1
0,4212,3850,-1,-1,-1
0,4213,3060,1,-1,-1
0,4214,2350,-1,-1,-1
0,4215,4840,-1,-1,-1
0,4216,1420,-1,-1,-1
0,4217,5450,1,-1,-1
0,4218,8460,-1,-1,-1
0,4219,13030,1,-1,-1
0,4220,3350,1,-1,-1
0,4221,1100,1,-1,-1
0,4222,2790,1,-1,-1
0,4223,6140,-1,-1,-1
0,4224,3000,-1,-1,-1
0,4225,9880,1,-1,-1
0,4226,1110,-1,-1,-1
0,4227,990,1,-1,-1
0,4228,1390,1,-1,-1
0,4229,960,-1,-1,-1
0,4230,6630,1,-1,-1
0,4231,3130,1,-1,-1
0,4232,2890,1,-1,-1
0,4233,2130,1,-1,-1
0,4234,4070,1,-1,-1
0,4235,6130,1,-1,-1
0,4236,2090,1,-1,-1
0,4237,860,-1,-1,-1
0,4238,6020,1,-1,-1
0,4239,1580,1,-1,-1
0,4240,9580,1,-1,-1
0,4241,4530,-1,-1,-1
0,4242,12460,1,-1,-1
0,4243,7580,-1,-1,-1
0,4244,2920,-1,-1,-1
0,4245,3500,-1,-1,-1
0,4246,2120,-1,-1,-1
0,4247,2130,1,-1,-1
0,4248,1690,-1,-1,-1
0,4249,2510,-1,-1,-1
0,4250,4490,1,-1,-1
0,4251,7400,1,-1,-1
0,4252,1510,-1,-1,-1
0,4253,4750,-1,-1,-1
0,4254,2930,-1,-1,-1
0,4255,13860,-1,-1,-1
0,4256,680,1,-1,-1
0,4257,3820,-1,-1,-1
0,4258,2190,-1,-1,-1
0,4259,530,-1,-1,-1
0,4260,12200,-1,-1,-1
0,4261,10540,1,-1,-1
0,4262,3980,-1,-1,-1
0,4263,820,1,-1,-1
0,4264,7100,1,-1,-1
0,4265,880,1,-1,-1
0,4266,3150,1,-1,-1
0,4267,5150,-1,-1,-1
0,4268,4900,1,-1,-1
0,4269,1280,1,-1,-1
0,4270,4500,-1,-1,-1
0,4271,2670,1,-1,-1
0,4272,2950,1,-1,-1
0,4273,3960,1,-1,-1
0,4274,2700,1,-1,-1
0,4275,3780,-1,-1,-1
0,4276,6350,-1,-1,-1
0,4277,1990,1,-1,-1
0,4278,2130,-1,-1,-1
0,4279,1600,1,-1,-1
0,4280,1230,-1,-1,-1
0,4281,1230,-1,-1,-1
0,4282,5580,1,-1,-1
0,4283,1960,-1,-1,-1
0,4284,1160,1,-1,-1
0,4285,790,-1,-1,-1
0,4286,3770,-1,-1,-1
0,4287,6170,1,-1,-1
0,4288,6170,1,-1,-1
0,4289,2170,1,-1,-1
0,4290,6130,-1,-1,-1
0,4291,3170,-1,-1,-1
0,4292,970,1,-1,-1
0,4293,8280,-1,-1,-1
0,4294,4690,-1,-1,-1
0,4295,6820,-1,-1,-1
0,4296,1120,-1,-1,-1
0,4297,630,1,-1,-1
0,4298,1790,1,-1,-1
0,4299,3970,1,-1,-1
0,4300,1120,1,-1,-1
0,4301,4780,-1,-1,-1
0,4302,4710,-1,-1,-1
0,4303,6640,1,-1,-1
0,4304,2030,1,-1,-1
0,4305,2990,1,-1,-1
0,4306,3780,-1,-1,-1
0,4307,16930,-1,-1,-1
0,4308,1630,-1,-1,-1
0,4309,3510,-1,-1,-1
0,4310,5020,1,-1,-1
0,4311,4150,-1,-1,-1
0,4312,4780,1,-1,-1
0,4313,4930,-1,-1,-1
0,4314,1590,1,-1,-1
0,4315,9490,1,-1,-1
0,4316,6600,-1,-1,-1
0,4317,2880,1,-1,-1
0,4318,1780,1,-1,-1
0,4319,6920,1,-1,-1
0,4320,11600,-1,-1,-1
0,4321,4530,-1,-1,-1
0,4322,18170,1,-1,-1
0,4323,870,1,-1,-1
0,4324,15130,-1,-1,-1
0,4325,470,1,-1,-1
0,4326,940,1,-1,-1
0,4327,1420,1,-1,-1
0,4328,5870,1,-1,-1
0,4329,1390,1,-1,-1
0,4330,3320,1,-1,-1
0,4331,2340,1,-1,-1
0,4332,2900,1,-1,-1
0,4333,9760,1,-1,-1
0,4334,2100,1,-1,-1
0,4335,4210,1,-1,-1
0,4336,1140,1,-1,-1
0,4337,12760,1,-1,-1
0,4338,6520,-1,-1,-1
0,4339,7780,-1,-1,-1
0,4340,650,1,-1,-1
0,4341,4940,1,-1,-1
0,4342,3780,-1,-1,-1
0,4343,6680,-1,-1,-1
0,4344,1150,-1,-1,-1
0,4345,2830,1,-1,-1
0,4346,15410,-1,-1,-1
0,4347,5310,-1,-1,-1
0,4348,3490,-1,-1,-1
0,4349,1890,-1,-1,-1
0,4350,2870,1,-1,-1
0,4351,7850,1,-1,-1
0,4352,2900,1,-1,-1
0,4353,1710,1,-1,-1
0,4354,2740,-1,-1,-1
0,4355,2340,-1,-1,-1
0,4356,1750,1,-1,-1
0,4357,1790,-1,-1,-1
0,4358,4000,1,-1,-1
0,4359,11850,-1,-1,-1
0,4360,3130,1,-1,-1
0,4361,1920,-1,-1,-1
0,4362,620,1,-1,-1
0,4363,6730,1,-1,-1
0,4364,2030,-1,-1,-1
0,4365,2650,1,-1,-1
0,4366,5080,-1,-1,-1
0,4367,1140,1,-1,-1
0,4368,4150,1,-1,-1
0,4369,9930,1,-1,-1
0,4370,5590,1,-1,-1
0,4371,1320,-1,-1,-1
0,4372,3110,-1,-1,-1
0,4373,3850,-1,-1,-1
0,4374,1580,-1,-1,-1
0,4375,1620,1,-1,-1
0,4376,6100,-1,-1,-1
0,4377,2240,-1,-1,-1
0,4378,7090,1,-1,-1
0,4379,2550,1,-1,-1
0,4380,1760,1,-1,-1
0,4381,6400,1,-1,-1
0,4382,880,-1,-1,-1
0,4383,1900,-1,-1,-1
0,4384,570,1,-1,-1
0,4385,2710,1,-1,-1
0,4386,10170,1,-1,-1
0,4387,7410,1,-1,-1
0,4388,2400,1,-1,-1
0,4389,2200,-1,-1,-1
0,4390,570,1,-1,-1
0,4391,3630,-1,-1,-1
0,4392,10530,-1,-1,-1
0,4393,6720,1,-1,-1
0,4394,2040,1,-1,-1
0,4395,2040,-1,-1,-1
0,4396,1760,1,-1,-1
0,4397,3930,1,-1,-1
0,4398,920,1,-1,-1
0,4399,2740,1,-1,-1
0,4400,3010,1,0,0
0,4401,1470,1,0,0
0,4402,9530,1,0,0
0,4403,3640,1,0,0
0,4404,2450,1,0,0
0,4405,11600,1,0,0
0,4406,1600,-1,0,0
0,4407,2180,1,0,0
0,4408,2060,-1,0,0
0,4409,4530,-1,0,0
0,4410,2220,1,0,0
0,4411,5610,1,0,0
0,4412,5240,-1,0,0
0,4413,2960,-1,0,0
0,4414,2520,1,0,0
0,4415,10740,-1,0,0
0,4416,1150,-1,0,0
0,4417,1450,1,0,0
0,4418,2140,1,0,0
0,4419,2280,1,0,0
0,4420,7940,1,0,0
0,4421,1630,1,0,0
0,4422,1970,1,0,0
0,4423,16600,1,0,0
0,4424,6000,-1,0,0
0,4425,3090,1,0,0
0,4426,1990,1,0,0
0,4427,6240,-1,0,0
0,4428,1470,-1,0,0
0,4429,6010,-1,0,0
0,4430,5640,1,0,0
0,4431,6670,1,0,0
0,4432,5190,1,0,0
0,4433,20980,-1,0,0
0,4434,1940,-1,0,0
0,4435,9430,-1,0,0
0,4436,10050,1,0,0
0,4437,2500,-1,0,0
0,4438,2640,-1,0,0
0,4439,5980,1,0,0
0,4440,2690,-1,0,0
0,4441,5220,1,0,0
0,4442,3480,1,0,0
0,4443,2400,-1,0,0
0,4444,17000,1,0,0
0,4445,2280,1,0,0
0,4446,7190,1,0,0
0,4447,1500,1,0,0
0,4448,1690,-1,0,0
0,4449,2270,1,0,0
0,4450,3300,1,0,0
0,4451,1730,-1,0,0
0,4452,2170,-1,0,0
0,4453,8390,-1,0,0
0,4454,3600,1,0,0
0,4455,9490,-1,0,0
0,4456,2400,-1,0,0
0,4457,5610,-1,0,0
0,4458,13790,-1,0,0
0,4459,10570,1,0,0
0,4460,4390,1,0,0
0,4461,1290,-1,0,0
0,4462,1440,1,0,0
0,4463,760,-1,0,0
0,4464,7910,-1,0,0
0,4465,13020,-1,0,0
0,4466,5830,-1,0,0
0,4467,2710,-1,0,0
0,4468,7590,-1,0,0
0,4469,5040,-1,0,0
0,4470,4680,-1,0,0
0,4471,2380,-1,0,0
0,4472,1960,1,0,0
0,4473,1270,1,0,0
0,4474,4260,1,0,0
0,4475,5430,1,0,0
0,4476,3030,1,0,0
0,4477,18590,1,0,0
0,4478,1600,-1,0,0
0,4479,5140,-1,0,0
0,4480,15360,1,0,0
0,4481,1280,1,0,0
0,4482,830,-1,0,0
0,4483,2990,1,0,0
0,4484,4250,-1,0,0
0,4485,4550,1,0,0
0,4486,5770,1,0,0
0,4487,2120,1,0,0
0,4488,1890,1,0,0
0,4489,5390,-1,0,0
0,4490,650,1,0,0
0,4491,9040,-1,0,0
0,4492,2490,1,0,0
0,4493,10760,-1,0,0
0,4494,1600,1,0,0
0,4495,2110,1,0,0
0,4496,690,1,0,0
0,4497,5880,-1,0,0
0,4498,3020,1,0,0
0,4499,3640,1,0,0
0,4500,9060,1,0,0
0,4501,1750,1,0,0
0,4502,3390,1,0,0
0,4503,4030,-1,0,0
0,4504,14560,1,0,0
0,4505,5890,1,0,0
0,4506,590,-1,0,0
0,4507,1340,-1,0,0
0,4508,3380,-1,0,0
0,4509,8760,1,0,0
0,4510,4650,1,0,0
0,4511,2540,1,0,0
0,4512,15970,1,0,0
0,4513,8240,1,0,0
0,4514,1260,-1,0,0
0,4515,2410,1,0,0
0,4516,5000,-1,0,0
0,4517,10180,-1,0,0
0,4518,3040,1,0,0
0,4519,7560,-1,0,0
0,4520,3680,1,0,0
0,4521,6460,1,0,0
0,4522,3270,-1,0,0
0,4523,1610,1,0,0
0,4524,3970,-1,0,0
0,4525,2920,1,0,0
0,4526,1840,-1,0,0
0,4527,6930,1,0,0
0,4528,1330,-1,0,0
0,4529,1340,1,0,0
0,4530,6900,-1,0,0
0,4531,1240,-1,0,0
0,4532,4810,-1,0,0
0,4533,320,1,0,0
0,4534,7940,1,0,0
0,4535,11480,1,0,0
0,4536,2920,1,0,0
0,4537,3280,-1,0,0
0,4538,950,1,0,0
0,4539,3220,-1,0,0
0,4540,4880,-1,0,0
0,4541,2020,1,0,0
0,4542,8260,1,0,0
0,4543,970,1,0,0
0,4544,4140,1,0,0
0,4545,2000,-1,0,0
0,4546,4460,1,0,0
0,4547,6090,-1,0,0
0,4548,1060,-1,0,0
0,4549,18980,1,0,0
0,4550,5220,-1,0,0
0,4551,1320,1,0,0
0,4552,1470,1,0,0
0,4553,11230,1,0,0
0,4554,3140,-1,0,0
0,4555,2650,-1,0,0
0,4556,980,-1,0,0
0,4557,2660,-1,0,0
0,4558,3640,-1,0,0
0,4559,3390,-1,0,0
0,4560,1800,1,0,0
0,4561,6470,-1,0,0
0,4562,7890,-1,0,0
0,4563,12990,1,0,0
0,4564,1750,-1,0,0
0,4565,890,1,0,0
0,4566,19580,-1,0,0
0,4567,1600,-1,0,0
0,4568,1480,1,0,0
0,4569,1040,-1,0,0
0,4570,12300,-1,0,0
0,4571,3000,-1,0,0
0,4572,3330,-1,0,0
0,4573,2220,-1,0,0
0,4574,5340,1,0,0
0,4575,5580,-1,0,0
0,4576,5070,1,0,0
0,4577,3130,1,0,0
0,4578,640,1,0,0
0,4579,5350,-1,0,0
0,4580,4520,-1,0,0
0,4581,7120,1,0,0
0,4582,1430,-1,0,0
0,4583,4220,1,0,0
0,4584,1520,1,0,0
0,4585,1510,1,0,0
0,4586,1820,1,0,0
0,4587,5270,1,0,0
0,4588,1200,1,0,0
0,4589,13960,-1,0,0
0,4590,6740,1,0,0
0,4591,4620,-1,0,0
0,4592,1560,1,0,0
0,4593,14960,-1,0,0
0,4594,2550,-1,0,0
0,4595,1170,1,0,0
0,4596,950,-1,0,0
0,4597,6800,1,0,0
0,4598,3460,-1,0,0
0,4599,1790,1,0,0
0,4600,3380,-1,0,0
0,4601,1330,-1,0,0
0,4602,3580,1,0,0
0,4603,3410,1,0,0
0,4604,9850,1,0,0
0,4605,3290,1,0,0
0,4606,12070,-1,0,0
0,4607,1540,1,0,0
0,4608,1010,1,0,0
0,4609,2690,1,0,0
0,4610,2650,-1,0,0
0,4611,2620,-1,0,0
0,4612,1390,1,0,0
0,4613,10030,-1,0,0
0,4614,5640,-1,0,0
0,4615,2490,1,0,0
0,4616,6700,1,0,0
0,4617,2570,1,0,0
0,4618,5360,1,0,0
0,4619,880,1,0,0
0,4620,2340,-1,0,0
0,4621,3840,-1,0,0
0,4622,930,1,0,0
0,4623,1270,-1,0,0
0,4624,1260,-1,0,0
0,4625,4740,1,0,0
0,4626,3490,1,0,0
0,4627,4760,1,0,0
0,4628,2790,-1,0,0
0,4629,2050,-1,0,0
0,4630,3200,1,0,0
0,4631,750,-1,0,0
0,4632,4490,1,0,0
0,4633,3820,1,0,0
0,4634,1570,1,0,0
0,4635,1350,-1,0,0
0,4636,10450,-1,0,0
0,4637,2390,1,0,0
0,4638,4630,1,0,0
0,4639,780,1,0,0
0,4640,810,-1,0,0
0,4641,3540,1,0,0
0,4642,5110,-1,0,0
0,4643,2470,1,0,0
0,4644,4320,1,0,0
0,4645,1060,1,0,0
0,4646,3320,1,0,0
0,4647,12290,1,0,0
0,4648,910,1,0,0
0,4649,5710,1,0,0
0,4650,7050,-1,0,0
0,4651,5090,-1,0,0
0,4652,1650,-1,0,0
0,4653,1990,-1,0,0
0,4654,1090,1,0,0
0,4655,3790,-1,0,0
0,4656,910,-1,0,0
0,4657,5630,-1,0,0
0,4658,3060,1,0,0
0,4659,2510,1,0,0
0,4660,2560,-1,0,0
0,4661,8390,-1,0,0
0,4662,3520,1,0,0
0,4663,8810,1,0,0
0,4664,4860,1,0,0
0,4665,1820,-1,0,0
0,4666,2710,-1,0,0
0,4667,3300,1,0,0
0,4668,3580,1,0,0
0,4669,6940,-1,0,0
0,4670,1780,-1,0,0
0,4671,1320,-1,0,0
0,4672,1910,1,0,0
0,4673,4590,-1,0,0
0,4674,2470,-1,0,0
0,4675,4480,-1,0,0
0,4676,11460,1,0,0
0,4677,3180,1,0,0
0,4678,3130,-1,0,0
0,4679,10280,-1,0,0
0,4680,2030,1,0,0
0,4681,1280,1,0,0
0,4682,1390,1,0,0
0,4683,640,1,0,0
0,4684,3640,1,0,0
0,4685,6090,1,0,0
0,4686,900,1,0,0
0,4687,12930,-1,0,0
0,4688,1300,1,0,0
0,4689,5930,-1,0,0
0,4690,2670,1,0,0
0,4691,7220,1,0,0
0,4692,2790,-1,0,0
0,4693,8730,1,0,0
0,4694,330,-1,0,0
0,4695,1690,1,0,0
0,4696,2810,1,0,0
0,4697,17580,1,0,0
0,4698,1080,1,0,0
0,4699,3360,1,0,0
0,4700,2870,-1,0,0
0,4701,3670,-1,0,0
0,4702,1070,1,0,0
0,4703,1280,-1,0,0
0,4704,2940,1,0,0
0,4705,2830,-1,0,0
0,4706,3040,-1,0,0
0,4707,1500,-1,0,0
0,4708,980,1,0,0
0,4709,5380,1,0,0
0,4710,8000,-1,0,0
0,4711,1400,1,0,0
0,4712,3370,1,0,0
0,4713,880,-1,0,0
0,4714,3400,-1,0,0
0,4715,3500,1,0,0
0,4716,1110,-1,0,0
0,4717,2470,1,0,0
0,4718,9420,-1,0,0
0,4719,7440,1,0,0
0,4720,840,1,0,0
0,4721,3640,1,0,0
0,4722,10150,1,0,0
0,4723,4200,1,0,0
0,4724,4670,1,0,0
0,4725,1160,1,0,0
0,4726,5040,1,0,0
0,4727,1550,1,0,0
0,4728,1930,1,0,0
0,4729,4670,-1,0,0
0,4730,3530,1,0,0
0,4731,4740,1,0,0
0,4732,8840,1,0,0
0,4733,7210,1,0,0
0,4734,7610,1,0,0
0,4735,9870,1,0,0
0,4736,6320,-1,0,0
0,4737,1740,1,0,0
0,4738,2760,1,0,0
0,4739,4130,1,0,0
0,4740,1610,1,0,0
0,4741,2170,-1,0,0
0,4742,1750,1,0,0
0,4743,3000,-1,0,0
0,4744,1320,1,0,0
0,4745,2190,-1,0,0
0,4746,8740,-1,0,0
0,4747,11390,-1,0,0
0,4748,2810,1,0,0
0,4749,5730,1,0,0
0,4750,12060,-1,0,0
0,4751,10880,-1,0,0
0,4752,2720,1,0,0
0,4753,4750,-1,0,0
0,4754,1850,-1,0,0
0,4755,2620,-1,0,0
0,4756,3090,-1,0,0
0,4757,5410,1,0,0
0,4758,3260,-1,0,0
0,4759,5310,1,0,0
0,4760,3240,-1,0,0
0,4761,2590,1,0,0
0,4762,860,-1,0,0
0,4763,9200,1,0,0
0,4764,5450,1,0,0
0,4765,3080,1,0,0
0,4766,620,1,0,0
0,4767,2600,1,0,0
0,4768,6960,1,0,0
0,4769,11800,-1,0,0
0,4770,8240,-1,0,0
0,4771,6500,1,0,0
0,4772,1190,1,0,0
0,4773,4370,-1,0,0
0,4774,13610,1,0,0
0,4775,12820,1,0,0
0,4776,10560,-1,0,0
0,4777,2430,1,0,0
0,4778,16640,1,0,0
0,4779,1570,-1,0,0
0,4780,7270,1,0,0
0,4781,460,-1,0,0
0,4782,5630,1,0,0
0,4783,10290,1,0,0
0,4784,2610,-1,0,0
0,4785,2120,-1,0,0
0,4786,1690,-1,0,0
0,4787,13410,1,0,0
0,4788,2670,-1,0,0
0,4789,1170,1,0,0
0,4790,1570,1,0,0
0,4791,2450,1,0,0
0,4792,5500,-1,0,0
0,4793,5640,-1,0,0
0,4794,800,1,0,0
0,4795,3080,1,0,0
0,4796,10120,-1,0,0
0,4797,6130,1,0,0
0,4798,1790,1,0,0
0,4799,1670,-1,0,0
0,4800,1660,1,-1,0
0,4801,2210,1,-1,0
0,4802,1020,-1,-1,0
0,4803,4420,1,-1,0
0,4804,500,-1,-1,0
0,4805,7830,1,-1,0
0,4806,5780,-1,-1,0
0,4807,3070,1,-1,0
0,4808,880,1,-1,0
0,4809,1270,-1,-1,0
0,4810,2500,-1,-1,0
0,4811,8190,-1,-1,0
0,4812,6820,1,-1,0
0,4813,2010,-1,-1,0
0,4814,1230,-1,-1,0
0,4815,2010,-1,-1,0
0,4816,1650,1,-1,0
0,4817,2650,1,-1,0
0,4818,19330,1,-1,0
0,4819,820,-1,-1,0
0,4820,1080,-1,-1,0
0,4821,1490,1,-1,0
0,4822,2970,1,-1,0
0,4823,1400,-1,-1,0
0,4824,2850,1,-1,0
0,4825,1990,1,-1,0
0,4826,2560,-1,-1,0
0,4827,2590,1,-1,0
0,4828,1470,1,-1,0
0,4829,3740,1,-1,0
0,4830,24840,1,-1,0
0,4831,1250,1,-1,0
0,4832,3710,-1,-1,0
0,4833,3460,-1,-1,0
0,4834,1440,1,-1,0
0,4835,1500,-1,-1,0
0,4836,2740,-1,-1,0
0,4837,1860,1,-1,0
0,4838,2230,-1,-1,0
0,4839,1630,1,-1,0
0,4840,2110,1,-1,0
0,4841,3550,1,-1,0
0,4842,3800,1,-1,0
0,4843,2690,1,-1,0
0,4844,4470,-1,-1,0
0,4845,1830,1,-1,0
0,4846,2410,-1,-1,0
0,4847,2120,1,-1,0
0,4848,3940,1,-1,0
0,4849,2670,1,-1,0
0,4850,3960,-1,-1,0
0,4851,3430,-1,-1,0
0,4852,5620,-1,-1,0
0,4853,4520,1,-1,0
0,4854,7780,1,-1,0
0,4855,480,1,-1,0
0,4856,890,-1,-1,0
0,4857,5320,1,-1,0
0,4858,5110,1,-1,0
0,4859,6800,-1,-1,0
0,4860,850,1,-1,0
0,4861,5150,-1,-1,0
0,4862,7150,1,-1,0
0,4863,8130,1,-1,0
0,4864,12960,1,-1,0
0,4865,3150,1,-1,0
0,4866,1400,-1,-1,0
0,4867,4790,1,-1,0
0,4868,7340,1,-1,0
0,4869,3630,1,-1,0
0,4870,2430,1,-1,0
0,4871,1180,1,-1,0
0,4872,1850,1,-1,0
0,4873,5140,1,-1,0
0,4874,8810,-1,-1,0
0,4875,6540,-1,-1,0
0,4876,2190,-1,-1,0
0,4877,560,1,-1,0
0,4878,2030,1,-1,0
0,4879,2910,-1,-1,0
0,4880,2560,1,-1,0
0,4881,8350,1,-1,0
0,4882,13460,1,-1,0
0,4883,6520,1,-1,0
0,4884,3770,1,-1,0
0,4885,2630,-1,-1,0
0,4886,1770,-1,-1,0
0,4887,1340,1,-1,0
0,4888,1570,-1,-1,0
0,4889,3160,-1,-1,0
0,4890,1380,1,-1,0
0,4891,1770,1,-1,0
0,4892,3010,1,-1,0
0,4893,7220,1,-1,0
0,4894,4190,1,-1,0
0,4895,2970,1,-1,0
0,4896,2310,-1,-1,0
0,4897,2790,1,-1,0
0,4898,5140,1,-1,0
0,4899,1540,-1,-1,0
0,4900,10830,1,-1,0
0,4901,790,1,-1,0
0,4902,4420,-1,-1,0
0,4903,4190,1,-1,0
0,4904,4400,1,-1,0
0,4905,7280,1,-1,0
0,4906,8350,1,-1,0
0,4907,2690,-1,-1,0
0,4908,4920,1,-1,0
0,4909,6210,1,-1,0
0,4910,4040,1,-1,0
0,4911,3760,1,-1,0
0,4912,3080,-1,-1,0
0,4913,2560,1,-1,0
0,4914,2910,1,-1,0
0,4915,4420,-1,-1,0
0,4916,13010,1,-1,0
0,4917,8770,-1,-1,0
0,4918,6540,1,-1,0
0,4919,4480,1,-1,0
0,4920,3590,1,-1,0
0,4921,4180,1,-1,0
0,4922,4020,1,-1,0
0,4923,1900,1,-1,0
0,4924,3280,1,-1,0
0,4925,3420,1,-1,0
0,4926,1370,1,-1,0
0,4927,7970,-1,-1,0
0,4928,5100,1,-1,0
0,4929,2720,1,-1,0
0,4930,700,-1,-1,0
0,4931,12140,1,-1,0
0,4932,1900,1,-1,0
0,4933,2870,1,-1,0
0,4934,2250,1,-1,0
0,4935,4090,-1,-1,0
0,4936,11340,1,-1,0
0,4937,3250,1,-1,0
0,4938,940,1,-1,0
0,4939,1960,1,-1,0
0,4940,3170,-1,-1,0
0,4941,2880,-1,-1,0
0,4942,2810,1,-1,0
0,4943,1840,-1,-1,0
0,4944,4090,1,-1,0
0,4945,3140,1,-1,0
0,4946,1260,1,-1,0
0,4947,1780,-1,-1,0
0,4948,3630,-1,-1,0
0,4949,8050,1,-1,0
0,4950,3440,1,-1,0
0,4951,1340,-1,-1,0
0,4952,6240,1,-1,0
0,4953,1870,1,-1,0
0,4954,3120,-1,-1,0
0,4955,950,1,-1,0
0,4956,2950,1,-1,0
0,4957,2820,-1,-1,0
0,4958,3690,-1,-1,0
0,4959,6340,1,-1,0
0,4960,2300,1,-1,0
0,4961,7640,1,-1,0
0,4962,5580,1,-1,0
0,4963,7100,1,-1,0
0,4964,10230,1,-1,0
0,4965,3450,1,-1,0
0,4966,3320,1,-1,0
0,4967,3780,1,-1,0
0,4968,2520,1,-1,0
0,4969,6090,-1,-1,0
0,4970,500,1,-1,0
0,4971,3100,1,-1,0
0,4972,1100,1,-1,0
0,4973,4420,-1,-1,0
0,4974,7650,1,-1,0
0,4975,1700,1,-1,0
0,4976,7370,1,-1,0
0,4977,930,1,-1,0
0,4978,8050,-1,-1,0
0,4979,710,-1,-1,0
0,4980,850,1,-1,0
0,4981,4040,1,-1,0
0,4982,2750,1,-1,0
0,4983,4940,1,-1,0
0,4984,2140,1,-1,0
0,4985,1670,-1,-1,0
0,4986,3070,1,-1,0
0,4987,1560,1,-1,0
0,4988,1940,1,-1,0
0,4989,9340,1,-1,0
0,4990,7750,-1,-1,0
0,4991,3200,1,-1,0
0,4992,15270,1,-1,0
0,4993,3830,1,-1,0
0,4994,2680,-1,-1,0
0,4995,3900,1,-1,0
0,4996,5130,-1,-1,0
0,4997,6400,1,-1,0
0,4998,4470,1,-1,0
0,4999,1500,1,-1,0
0,5000,1630,1,-1,0
0,5001,720,1,-1,0
0,5002,1850,-1,-1,0
0,5003,2570,1,-1,0
0,5004,2350,1,-1,0
0,5005,1400,1,-1,0
0,5006,6590,1,-1,0
0,5007,2390,1,-1,0
0,5008,1070,-1,-1,0
0,5009,5960,1,-1,0
0,5010,5730,1,-1,0
0,5011,1950,1,-1,0
0,5012,8160,-1,-1,0
0,5013,3480,-1,-1,0
0,5014,4210,1,-1,0
0,5015,8190,-1,-1,0
0,5016,7110,-1,-1,0
0,5017,6980,1,-1,0
0,5018,1760,1,-1,0
0,5019,4930,-1,-1,0
0,5020,2010,1,-1,0
0,5021,5290,1,-1,0
0,5022,1980,1,-1,0
0,5023,970,1,-1,0
0,5024,1060,1,-1,0
0,5025,4170,-1,-1,0
0,5026,12910,-1,-1,0
0,5027,5260,-1,-1,0
0,5028,2970,1,-1,0
0,5029,6720,1,-1,0
0,5030,1450,1,-1,0
0,5031,1520,1,-1,0
0,5032,6290,1,-1,0
0,5033,4360,-1,-1,0
0,5034,2880,1,-1,0
0,5035,5330,1,-1,0
0,5036,12460,1,-1,0
0,5037,1860,1,-1,0
0,5038,3910,1,-1,0
0,5039,6360,-1,-1,0
0,5040,1050,1,-1,0
0,5041,1300,1,-1,0
0,5042,780,1,-1,0
0,5043,2000,1,-1,0
0,5044,6250,1,-1,0
0,5045,1340,1,-1,0
0,5046,940,-1,-1,0
0,5047,5970,-1,-1,0
0,5048,4630,1,-1,0
0,5049,1730,-1,-1,0
0,5050,4490,1,-1,0
0,5051,1740,1,-1,0
0,5052,2080,-1,-1,0
0,5053,4840,1,-1,0
0,5054,10030,-1,-1,0
0,5055,1100,1,-1,0
0,5056,1470,1,-1,0
0,5057,8450,1,-1,0
0,5058,4460,1,-1,0
0,5059,4700,-1,-1,0
0,5060,1090,1,-1,0
0,5061,3040,1,-1,0
0,5062,2330,1,-1,0
0,5063,1760,1,-1,0
0,5064,10180,-1,-1,0
0,5065,5210,-1,-1,0
0,5066,2920,-1,-1,0
0,5067,2010,1,-1,0
0,5068,1720,1,-1,0
0,5069,2260,1,-1,0
0,5070,8620,1,-1,0
0,5071,8130,-1,-1,0
0,5072,3980,1,-1,0
0,5073,5030,-1,-1,0
0,5074,670,-1,-1,0
0,5075,2660,1,-1,0
0,5076,1240,1,-1,0
0,5077,11590,1,-1,0
0,5078,1190,1,-1,0
0,5079,2420,-1,-1,0
0,5080,6030,1,-1,0
0,5081,790,1,-1,0
0,5082,770,1,-1,0
0,5083,1200,1,-1,0
0,5084,14340,-1,-1,0
0,5085,10370,1,-1,0
0,5086,1190,-1,-1,0
0,5087,1410,-1,-1,0
0,5088,1380,-1,-1,0
0,5089,6090,1,-1,0
0,5090,6670,1,-1,0
0,5091,1080,1,-1,0
0,5092,4150,1,-1,0
0,5093,3840,-1,-1,0
0,5094,8720,1,-1,0
0,5095,19610,1,-1,0
0,5096,1820,1,-1,0
0,5097,7070,1,-1,0
0,5098,840,1,-1,0
0,5099,740,1,-1,0
0,5100,3980,-1,-1,0
0,5101,2930,1,-1,0
0,5102,1140,-1,-1,0
0,5103,7760,1,-1,0
0,5104,900,1,-1,0
0,5105,7970,1,-1,0
0,5106,780,1,-1,0
0,5107,1330,-1,-1,0
0,5108,1990,1,-1,0
0,5109,5140,-1,-1,0
0,5110,6000,1,-1,0
0,5111,2470,-1,-1,0
0,5112,3600,1,-1,0
0,5113,1000,1,-1,0
0,5114,4840,1,-1,0
0,5115,1390,1,-1,0
0,5116,3240,1,-1,0
0,5117,1130,1,-1,0
0,5118,1830,-1,-1,0
0,5119,4490,1,-1,0
0,5120,2220,-1,-1,0
0,5121,4630,1,-1,0
0,5122,3990,1,-1,0
0,5123,3270,-1,-1,0
0,5124,13980,-1,-1,0
0,5125,7220,1,-1,0
0,5126,2270,-1,-1,0
0,5127,1360,1,-1,0
0,5128,1580,1,-1,0
0,5129,1220,1,-1,0
0,5130,4600,1,-1,0
0,5131,1480,1,-1,0
0,5132,3480,1,-1,0
0,5133,3630,1,-1,0
0,5134,3470,1,-1,0
0,5135,14360,1,-1,0
0,5136,970,1,-1,0
0,5137,5600,-1,-1,0
0,5138,1150,1,-1,0
0,5139,1130,1,-1,0
0,5140,3740,-1,-1,0
0,5141,6470,1,-1,0
0,5142,1310,1,-1,0
0,5143,1440,1,-1,0
0,5144,890,1,-1,0
0,5145,3370,1,-1,0
0,5146,3170,-1,-1,0
0,5147,2720,1,-1,0
0,5148,1830,-1,-1,0
0,5149,2890,1,-1,0
0,5150,3000,-1,-1,0
0,5151,4960,1,-1,0
0,5152,12270,1,-1,0
0,5153,2060,-1,-1,0
0,5154,4080,1,-1,0
0,5155,1840,-1,-1,0
0,5156,1130,-1,-1,0
0,5157,2740,1,-1,0
0,5158,1840,1,-1,0
0,5159,2040,1,-1,0
0,5160,1270,-1,-1,0
0,5161,13690,-1,-1,0
0,5162,6460,1,-1,0
0,5163,1680,1,-1,0
0,5164,6670,1,-1,0
0,5165,9240,1,-1,0
0,5166,6920,-1,-1,0
0,5167,13530,1,-1,0
0,5168,3300,1,-1,0
0,5169,3280,-1,-1,0
0,5170,5350,1,-1,0
0,5171,5200,1,-1,0
0,5172,1090,1,-1,0
0,5173,1470,1,-1,0
0,5174,5010,1,-1,0
0,5175,2600,-1,-1,0
0,5176,1410,1,-1,0
0,5177,610,1,-1,0
0,5178,1980,1,-1,0
0,5179,1310,-1,-1,0
0,5180,3060,1,-1,0
0,5181,840,-1,-1,0
0,5182,2170,1,-1,0
0,5183,8960,1,-1,0
0,5184,13060,1,-1,0
0,5185,4510,1,-1,0
0,5186,6530,1,-1,0
0,5187,4910,-1,-1,0
0,5188,5380,-1,-1,0
0,5189,3500,1,-1,0
0,5190,6470,1,-1,0
0,5191,1840,1,-1,0
0,5192,2330,1,-1,0
0,5193,1910,1,-1,0
0,5194,1790,-1,-1,0
0,5195,6700,-1,-1,0
0,5196,7170,1,-1,0
0,5197,730,1,-1,0
0,5198,2090,1,-1,0
0,5199,3080,1,-1,0
0,5200,14340,1,-1,-1
0,5201,1010,1,-1,-1
0,5202,1760,-1,-1,-1
0,5203,2140,1,-1,-1
0,5204,1810,-1,-1,-1
0,5205,3910,1,-1,-1
0,5206,900,-1,-1,-1
0,5207,1190,-1,-1,-1
0,5208,14850,1,-1,-1
0,5209,1330,1,-1,-1
0,5210,1320,-1,-1,-1
0,5211,2300,1,-1,-1
0,5212,1330,1,-1,-1
0,5213,3520,-1,-1,-1
0,5214,990,-1,-1,-1
0,5215,3110,1,-1,-1
