parcode,trial,rt,choice,item_left,item_right
0,0,1890,1,1,1
0,1,19030,1,1,1
0,2,4110,1,1,1
0,3,4320,1,1,1
0,4,1560,1,1,1
0,5,1940,1,1,1
0,6,2070,-1,1,1
0,7,3920,-1,1,1
0,8,8580,1,1,1
0,9,1110,1,1,1
0,10,880,1,1,1
0,11,900,1,1,1
0,12,2250,-1,1,1
0,13,1390,1,1,1
0,14,3580,1,1,1
0,15,6000,1,1,1
0,16,5020,1,1,1
0,17,4000,1,1,1
0,18,2690,-1,1,1
0,19,4910,1,1,1
0,20,1190,-1,1,1
0,21,7340,1,1,1
0,22,2560,1,1,1
0,23,11930,1,1,1
0,24,4610,1,1,1
0,25,4330,1,1,1
0,26,5740,1,1,1
0,27,8680,1,1,1
0,28,3300,1,1,1
0,29,1520,-1,1,1
0,30,13890,1,1,1
0,31,1300,1,1,1
0,32,3170,1,1,1
0,33,2240,1,1,1
0,34,13350,-1,1,1
0,35,1740,-1,1,1
0,36,2360,-1,1,1
0,37,2060,1,1,1
0,38,1850,1,1,1
0,39,3010,1,1,1
0,40,2290,-1,1,1
0,41,15800,1,1,1
0,42,1460,1,1,1
0,43,4120,1,1,1
0,44,1770,1,1,1
0,45,1000,1,1,1
0,46,2420,1,1,1
0,47,2960,1,1,1
0,48,8660,1,1,1
0,49,2840,-1,1,1
0,50,13810,1,1,1
0,51,1780,1,1,1
0,52,950,1,1,1
0,53,5740,1,1,1
0,54,11320,1,1,1
0,55,1310,-1,1,1
0,56,1000,-1,1,1
0,57,5150,1,1,1
0,58,4760,1,1,1
0,59,2180,1,1,1
0,60,1780,1,1,1
0,61,3750,1,1,1
0,62,4390,1,1,1
0,63,2990,1,1,1
0,64,6890,-1,1,1
0,65,3860,1,1,1
0,66,7590,1,1,1
0,67,2320,1,1,1
0,68,1900,1,1,1
0,69,1470,1,1,1
0,70,870,1,1,1
0,71,2350,1,1,1
0,72,1750,1,1,1
0,73,1540,1,1,1
0,74,2740,-1,1,1
0,75,1000,1,1,1
0,76,2180,1,1,1
0,77,4670,1,1,1
0,78,4730,-1,1,1
0,79,5600,1,1,1
0,80,5520,1,1,1
0,81,4440,1,1,1
0,82,1710,-1,1,1
0,83,6560,1,1,1
0,84,1490,-1,1,1
0,85,7220,1,1,1
0,86,2370,1,1,1
0,87,4040,1,1,1
0,88,6350,1,1,1
0,89,1130,-1,1,1
0,90,3340,1,1,1
0,91,3530,1,1,1
0,92,4780,1,1,1
0,93,2540,1,1,1
0,94,5670,-1,1,1
0,95,5000,-1,1,1
0,96,670,1,1,1
0,97,1330,1,1,1
0,98,5200,1,1,1
0,99,1990,1,1,1
0,100,1610,-1,1,1
0,101,2450,1,1,1
0,102,5700,1,1,1
0,103,7820,1,1,1
0,104,3250,1,1,1
0,105,2620,1,1,1
0,106,1920,1,1,1
0,107,1530,-1,1,1
0,108,4410,-1,1,1
0,109,2670,-1,1,1
0,110,1200,1,1,1
0,111,4510,1,1,1
0,112,1020,1,1,1
0,113,750,-1,1,1
0,114,3350,-1,1,1
0,115,1740,1,1,1
0,116,4970,1,1,1
0,117,1090,-1,1,1
0,118,940,-1,1,1
0,119,3920,1,1,1
0,120,1330,-1,1,1
0,121,930,1,1,1
0,122,1330,1,1,1
0,123,730,1,1,1
0,124,3400,-1,1,1
0,125,8390,1,1,1
0,126,2080,1,1,1
0,127,4760,1,1,1
0,128,1880,1,1,1
0,129,2440,-1,1,1
0,130,2030,1,1,1
0,131,990,1,1,1
0,132,1370,1,1,1
0,133,7270,1,1,1
0,134,710,-1,1,1
0,135,4330,-1,1,1
0,136,580,1,1,1
0,137,3110,-1,1,1
0,138,3590,1,1,1
0,139,2640,1,1,1
0,140,1680,1,1,1
0,141,5490,1,1,1
0,142,2840,-1,1,1
0,143,1840,1,1,1
0,144,450,-1,1,1
0,145,1870,1,1,1
0,146,4250,1,1,1
0,147,2870,1,1,1
0,148,9070,1,1,1
0,149,4710,1,1,1
0,150,8670,1,1,1
0,151,2640,-1,1,1
0,152,2350,1,1,1
0,153,1100,-1,1,1
0,154,2630,-1,1,1
0,155,1900,1,1,1
0,156,3240,1,1,1
0,157,3010,1,1,1
0,158,6030,1,1,1
0,159,2780,1,1,1
0,160,920,-1,1,1
0,161,910,1,1,1
0,162,2050,-1,1,1
0,163,4120,1,1,1
0,164,1310,1,1,1
0,165,3880,1,1,1
0,166,1320,-1,1,1
0,167,1290,1,1,1
0,168,4730,1,1,1
0,169,6040,1,1,1
0,170,5820,1,1,1
0,171,4460,1,1,1
0,172,8440,1,1,1
0,173,2340,1,1,1
0,174,1290,-1,1,1
0,175,13840,-1,1,1
0,176,3700,1,1,1
0,177,990,1,1,1
0,178,10980,1,1,1
0,179,7110,1,1,1
0,180,3570,1,1,1
0,181,1590,1,1,1
0,182,1630,1,1,1
0,183,1010,1,1,1
0,184,1060,-1,1,1
0,185,2030,1,1,1
0,186,1110,1,1,1
0,187,1290,1,1,1
0,188,1210,1,1,1
0,189,590,1,1,1
0,190,1680,1,1,1
0,191,5000,1,1,1
0,192,6340,1,1,1
0,193,6440,1,1,1
0,194,4320,1,1,1
0,195,1530,-1,1,1
0,196,600,-1,1,1
0,197,2090,-1,1,1
0,198,9410,1,1,1
0,199,6350,1,1,1
0,200,8860,1,1,1
0,201,3800,1,1,1
0,202,2960,1,1,1
0,203,6100,1,1,1
0,204,540,1,1,1
0,205,2350,1,1,1
0,206,3640,1,1,1
0,207,2860,1,1,1
0,208,3310,-1,1,1
0,209,4930,1,1,1
0,210,4760,1,1,1
0,211,3260,1,1,1
0,212,4630,1,1,1
0,213,5810,1,1,1
0,214,2430,1,1,1
0,215,8070,1,1,1
0,216,1430,1,1,1
0,217,1190,1,1,1
0,218,15190,1,1,1
0,219,1950,1,1,1
0,220,11780,1,1,1
0,221,1690,1,1,1
0,222,3450,1,1,1
0,223,2970,1,1,1
0,224,4420,1,1,1
0,225,5070,1,1,1
0,226,6590,1,1,1
0,227,3520,-1,1,1
0,228,1560,1,1,1
0,229,660,1,1,1
0,230,1360,-1,1,1
0,231,5840,1,1,1
0,232,3310,1,1,1
0,233,2810,1,1,1
0,234,11550,1,1,1
0,235,750,1,1,1
0,236,3760,1,1,1
0,237,3100,1,1,1
0,238,930,-1,1,1
0,239,7520,1,1,1
0,240,11920,1,1,1
0,241,2810,1,1,1
0,242,1970,1,1,1
0,243,800,1,1,1
0,244,2640,1,1,1
0,245,860,1,1,1
0,246,5060,1,1,1
0,247,1630,1,1,1
0,248,4180,-1,1,1
0,249,1180,1,1,1
0,250,1790,1,1,1
0,251,3220,1,1,1
0,252,5480,1,1,1
0,253,2010,1,1,1
0,254,19290,-1,1,1
0,255,2180,-1,1,1
0,256,5030,1,1,1
0,257,4010,1,1,1
0,258,4620,-1,1,1
0,259,4360,-1,1,1
0,260,880,-1,1,1
0,261,1790,1,1,1
0,262,5430,1,1,1
0,263,2700,1,1,1
0,264,1930,1,1,1
0,265,5020,1,1,1
0,266,1330,1,1,1
0,267,4380,1,1,1
0,268,4370,-1,1,1
0,269,5300,1,1,1
0,270,1220,1,1,1
0,271,3830,-1,1,1
0,272,3770,1,1,1
0,273,2210,1,1,1
0,274,3970,1,1,1
0,275,3490,1,1,1
0,276,4080,-1,1,1
0,277,7120,1,1,1
0,278,2300,1,1,1
0,279,1720,1,1,1
0,280,970,1,1,1
0,281,3110,1,1,1
0,282,750,1,1,1
0,283,7930,1,1,1
0,284,1580,-1,1,1
0,285,2000,1,1,1
0,286,8660,1,1,1
0,287,4750,1,1,1
0,288,1860,1,1,1
0,289,3120,-1,1,1
0,290,9250,1,1,1
0,291,1140,1,1,1
0,292,1860,-1,1,1
0,293,1260,1,1,1
0,294,10040,1,1,1
0,295,490,1,1,1
0,296,2140,1,1,1
0,297,1550,1,1,1
0,298,1100,1,1,1
0,299,5050,-1,1,1
0,300,3400,-1,1,1
0,301,4860,1,1,1
0,302,1810,1,1,1
0,303,5480,1,1,1
0,304,6240,1,1,1
0,305,1860,1,1,1
0,306,4160,1,1,1
0,307,520,1,1,1
0,308,9810,1,1,1
0,309,5600,1,1,1
0,310,2250,-1,1,1
0,311,2600,1,1,1
0,312,3410,1,1,1
0,313,750,1,1,1
0,314,5460,1,1,1
0,315,1420,1,1,1
0,316,3290,1,1,1
0,317,8910,1,1,1
0,318,6110,1,1,1
0,319,1540,1,1,1
0,320,6050,1,1,1
0,321,2090,1,1,1
0,322,3720,1,1,1
0,323,2280,-1,1,1
0,324,1100,1,1,1
0,325,7250,1,1,1
0,326,3790,1,1,1
0,327,5380,1,1,1
0,328,6640,-1,1,1
0,329,1440,1,1,1
0,330,2430,1,1,1
0,331,4180,1,1,1
0,332,1440,1,1,1
0,333,630,1,1,1
0,334,610,1,1,1
0,335,1960,1,1,1
0,336,1960,1,1,1
0,337,1260,1,1,1
0,338,4660,1,1,1
0,339,5700,1,1,1
0,340,4900,1,1,1
0,341,10230,1,1,1
0,342,1560,-1,1,1
0,343,9310,1,1,1
0,344,1840,1,1,1
0,345,1250,-1,1,1
0,346,3380,1,1,1
0,347,1670,-1,1,1
0,348,1050,1,1,1
0,349,640,-1,1,1
0,350,2890,1,1,1
0,351,9860,1,1,1
0,352,3070,-1,1,1
0,353,1480,1,1,1
0,354,2200,1,1,1
0,355,860,1,1,1
0,356,16470,1,1,1
0,357,4270,1,1,1
0,358,6650,-1,1,1
0,359,3810,1,1,1
0,360,4600,1,1,1
0,361,3630,1,1,1
0,362,750,1,1,1
0,363,6680,-1,1,1
0,364,2070,1,1,1
0,365,2680,1,1,1
0,366,3650,-1,1,1
0,367,2690,1,1,1
0,368,7940,1,1,1
0,369,8090,1,1,1
0,370,2280,1,1,1
0,371,2570,1,1,1
0,372,9200,1,1,1
0,373,1000,1,1,1
0,374,8550,1,1,1
0,375,1120,1,1,1
0,376,830,1,1,1
0,377,780,1,1,1
0,378,1920,1,1,1
0,379,12540,1,1,1
0,380,7800,1,1,1
0,381,2870,1,1,1
0,382,3390,1,1,1
0,383,680,1,1,1
0,384,600,-1,1,1
0,385,3000,1,1,1
0,386,1270,1,1,1
0,387,1160,1,1,1
0,388,5640,1,1,1
0,389,1450,1,1,1
0,390,1990,1,1,1
0,391,11010,-1,1,1
0,392,340,1,1,1
0,393,1620,1,1,1
0,394,2700,1,1,1
0,395,3910,1,1,1
0,396,2710,1,1,1
0,397,5280,1,1,1
0,398,7280,-1,1,1
0,399,880,1,1,1
0,400,7600,1,-1,-1
0,401,3540,-1,-1,-1
0,402,2160,1,-1,-1
0,403,1600,1,-1,-1
0,404,3680,1,-1,-1
0,405,3760,-1,-1,-1
0,406,6480,1,-1,-1
0,407,3410,-1,-1,-1
0,408,1310,1,-1,-1
0,409,910,1,-1,-1
0,410,5930,-1,-1,-1
0,411,4330,1,-1,-1
0,412,1920,-1,-1,-1
0,413,4660,-1,-1,-1
0,414,4670,1,-1,-1
0,415,3750,1,-1,-1
0,416,8740,-1,-1,-1
0,417,2670,1,-1,-1
0,418,3070,-1,-1,-1
0,419,1360,1,-1,-1
0,420,9700,-1,-1,-1
0,421,3580,-1,-1,-1
0,422,1770,1,-1,-1
0,423,4800,1,-1,-1
0,424,1240,-1,-1,-1
0,425,5700,1,-1,-1
0,426,970,1,-1,-1
0,427,2660,1,-1,-1
0,428,4460,-1,-1,-1
0,429,3350,1,-1,-1
0,430,2330,1,-1,-1
0,431,2150,-1,-1,-1
0,432,1920,-1,-1,-1
0,433,1280,-1,-1,-1
0,434,5750,1,-1,-1
0,435,1460,1,-1,-1
0,436,6070,1,-1,-1
0,437,5230,1,-1,-1
0,438,5220,1,-1,-1
0,439,3240,-1,-1,-1
0,440,4910,1,-1,-1
0,441,4250,1,-1,-1
0,442,3410,1,-1,-1
0,443,5920,-1,-1,-1
0,444,9780,1,-1,-1
0,445,570,-1,-1,-1
0,446,3450,1,-1,-1
0,447,1100,1,-1,-1
0,448,3330,-1,-1,-1
0,449,1000,1,-1,-1
0,450,3040,1,-1,-1
0,451,7520,1,-1,-1
0,452,2230,-1,-1,-1
0,453,7800,1,-1,-1
0,454,1790,-1,-1,-1
0,455,9060,-1,-1,-1
0,456,2540,-1,-1,-1
0,457,2580,-1,-1,-1
0,458,3090,1,-1,-1
0,459,6090,-1,-1,-1
0,460,8640,1,-1,-1
0,461,8180,1,-1,-1
0,462,2290,-1,-1,-1
0,463,9060,-1,-1,-1
0,464,1310,-1,-1,-1
0,465,1240,-1,-1,-1
0,466,1750,1,-1,-1
0,467,6710,-1,-1,-1
0,468,2640,-1,-1,-1
0,469,1200,-1,-1,-1
0,470,1920,-1,-1,-1
0,471,4830,-1,-1,-1
0,472,490,1,-1,-1
0,473,6280,-1,-1,-1
0,474,4490,1,-1,-1
0,475,4550,-1,-1,-1
0,476,10840,1,-1,-1
0,477,2970,1,-1,-1
0,478,2830,-1,-1,-1
0,479,830,1,-1,-1
0,480,5940,1,-1,-1
0,481,2630,-1,-1,-1
0,482,2510,1,-1,-1
0,483,7310,1,-1,-1
0,484,5190,-1,-1,-1
0,485,11610,1,-1,-1
0,486,2020,-1,-1,-1
0,487,4070,-1,-1,-1
0,488,1670,1,-1,-1
0,489,13020,-1,-1,-1
0,490,4880,1,-1,-1
0,491,7780,1,-1,-1
0,492,3250,-1,-1,-1
0,493,1510,1,-1,-1
0,494,3350,-1,-1,-1
0,495,1730,1,-1,-1
0,496,2790,-1,-1,-1
0,497,5520,-1,-1,-1
0,498,2720,1,-1,-1
0,499,8270,-1,-1,-1
0,500,5080,-1,-1,-1
0,501,2320,1,-1,-1
0,502,2730,-1,-1,-1
0,503,2670,1,-1,-1
0,504,6280,-1,-1,-1
0,505,730,1,-1,-1
0,506,900,1,-1,-1
0,507,4270,1,-1,-1
0,508,6080,1,-1,-1
0,509,5500,1,-1,-1
0,510,12080,1,-1,-1
0,511,2230,-1,-1,-1
0,512,1630,1,-1,-1
0,513,1310,1,-1,-1
0,514,1150,1,-1,-1
0,515,3410,1,-1,-1
0,516,5350,1,-1,-1
0,517,6590,1,-1,-1
0,518,8750,-1,-1,-1
0,519,3780,-1,-1,-1
0,520,4730,1,-1,-1
0,521,880,1,-1,-1
0,522,3740,1,-1,-1
0,523,16980,1,-1,-1
0,524,14410,-1,-1,-1
0,525,740,-1,-1,-1
0,526,3650,1,-1,-1
0,527,1390,1,-1,-1
0,528,16410,-1,-1,-1
0,529,3190,1,-1,-1
0,530,2910,-1,-1,-1
0,531,4530,1,-1,-1
0,532,1940,1,-1,-1
0,533,4740,1,-1,-1
0,534,2910,-1,-1,-1
0,535,1510,-1,-1,-1
0,536,2220,1,-1,-1
0,537,1230,1,-1,-1
0,538,3340,1,-1,-1
0,539,3000,-1,-1,-1
0,540,3850,1,-1,-1
0,541,880,-1,-1,-1
0,542,5420,-1,-1,-1
0,543,4100,1,-1,-1
0,544,2880,1,-1,-1
0,545,1880,-1,-1,-1
0,546,1350,1,-1,-1
0,547,1590,-1,-1,-1
0,548,4030,-1,-1,-1
0,549,4690,-1,-1,-1
0,550,2010,1,-1,-1
0,551,1610,1,-1,-1
0,552,1880,1,-1,-1
0,553,3470,-1,-1,-1
0,554,1680,-1,-1,-1
0,555,10500,-1,-1,-1
0,556,7020,-1,-1,-1
0,557,3070,1,-1,-1
0,558,3320,-1,-1,-1
0,559,1540,1,-1,-1
0,560,10420,-1,-1,-1
0,561,1910,-1,-1,-1
0,562,5820,1,-1,-1
0,563,6450,1,-1,-1
0,564,1080,-1,-1,-1
0,565,9400,1,-1,-1
0,566,7810,-1,-1,-1
0,567,860,-1,-1,-1
0,568,2350,1,-1,-1
0,569,3110,-1,-1,-1
0,570,7350,-1,-1,-1
0,571,1080,1,-1,-1
0,572,1520,1,-1,-1
0,573,4740,-1,-1,-1
0,574,550,1,-1,-1
0,575,1880,-1,-1,-1
0,576,10540,1,-1,-1
0,577,17230,-1,-1,-1
0,578,14820,-1,-1,-1
0,579,3210,1,-1,-1
0,580,1560,1,-1,-1
0,581,720,1,-1,-1
0,582,9560,1,-1,-1
0,583,3520,-1,-1,-1
0,584,1640,1,-1,-1
0,585,1080,1,-1,-1
0,586,2760,-1,-1,-1
0,587,1870,-1,-1,-1
0,588,3300,1,-1,-1
0,589,4360,1,-1,-1
0,590,3100,1,-1,-1
0,591,1580,-1,-1,-1
0,592,8600,1,-1,-1
0,593,1800,1,-1,-1
0,594,1400,1,-1,-1
0,595,2290,1,-1,-1
0,596,1520,-1,-1,-1
0,597,4180,1,-1,-1
0,598,1320,-1,-1,-1
0,599,1070,-1,-1,-1
0,600,1860,1,-1,-1
0,601,7040,-1,-1,-1
0,602,4680,1,-1,-1
0,603,860,-1,-1,-1
0,604,1160,1,-1,-1
0,605,890,1,-1,-1
0,606,12970,-1,-1,-1
0,607,710,1,-1,-1
0,608,5710,-1,-1,-1
0,609,4960,1,-1,-1
0,610,2660,-1,-1,-1
0,611,5400,-1,-1,-1
0,612,3920,-1,-1,-1
0,613,3780,1,-1,-1
0,614,2430,1,-1,-1
0,615,5640,-1,-1,-1
0,616,1370,1,-1,-1
0,617,1100,1,-1,-1
0,618,5430,1,-1,-1
0,619,3300,-1,-1,-1
0,620,1610,-1,-1,-1
0,621,6280,1,-1,-1
0,622,1810,1,-1,-1
0,623,510,-1,-1,-1
0,624,6020,1,-1,-1
0,625,8910,1,-1,-1
0,626,3820,1,-1,-1
0,627,5180,1,-1,-1
0,628,860,-1,-1,-1
0,629,1240,1,-1,-1
0,630,2060,1,-1,-1
0,631,3770,1,-1,-1
0,632,2230,1,-1,-1
0,633,14720,-1,-1,-1
0,634,4310,-1,-1,-1
0,635,1180,1,-1,-1
0,636,15080,1,-1,-1
0,637,3270,-1,-1,-1
0,638,4150,-1,-1,-1
0,639,10610,1,-1,-1
0,640,4870,-1,-1,-1
0,641,4690,1,-1,-1
0,642,4920,1,-1,-1
0,643,1600,1,-1,-1
0,644,1630,-1,-1,-1
0,645,3150,1,-1,-1
0,646,2790,-1,-1,-1
0,647,3920,-1,-1,-1
0,648,10420,-1,-1,-1
0,649,1630,-1,-1,-1
0,650,5060,1,-1,-1
0,651,2540,-1,-1,-1
0,652,5410,-1,-1,-1
0,653,3250,-1,-1,-1
0,654,6510,-1,-1,-1
0,655,7470,-1,-1,-1
0,656,5120,1,-1,-1
0,657,1320,1,-1,-1
0,658,3680,-1,-1,-1
0,659,3160,1,-1,-1
0,660,1580,-1,-1,-1
0,661,8030,1,-1,-1
0,662,1060,1,-1,-1
0,663,2930,-1,-1,-1
0,664,5850,1,-1,-1
0,665,4490,-1,-1,-1
0,666,3650,-1,-1,-1
0,667,2590,-1,-1,-1
0,668,4830,1,-1,-1
0,669,4790,-1,-1,-1
0,670,1070,-1,-1,-1
0,671,1070,-1,-1,-1
0,672,8020,-1,-1,-1
0,673,1250,1,-1,-1
0,674,9400,1,-1,-1
0,675,3750,1,-1,-1
0,676,4060,1,-1,-1
0,677,8760,-1,-1,-1
0,678,4170,1,-1,-1
0,679,720,1,-1,-1
0,680,8950,1,-1,-1
0,681,1550,-1,-1,-1
0,682,7990,1,-1,-1
0,683,1260,1,-1,-1
0,684,2590,1,-1,-1
0,685,1030,-1,-1,-1
0,686,6810,1,-1,-1
0,687,1210,1,-1,-1
0,688,1200,1,-1,-1
0,689,4680,1,-1,-1
0,690,10550,1,-1,-1
0,691,8420,1,-1,-1
0,692,1720,1,-1,-1
0,693,7030,1,-1,-1
0,694,1190,1,-1,-1
0,695,5100,1,-1,-1
0,696,1320,-1,-1,-1
0,697,2970,1,-1,-1
0,698,3130,-1,-1,-1
0,699,14380,-1,-1,-1
0,700,3570,-1,-1,-1
0,701,10060,-1,-1,-1
0,702,2280,1,-1,-1
0,703,1010,-1,-1,-1
0,704,4240,-1,-1,-1
0,705,960,1,-1,-1
0,706,3860,1,-1,-1
0,707,1150,-1,-1,-1
0,708,5930,1,-1,-1
0,709,9230,1,-1,-1
0,710,2730,-1,-1,-1
0,711,2600,1,-1,-1
0,712,3700,-1,-1,-1
0,713,9900,1,-1,-1
0,714,7730,-1,-1,-1
0,715,1890,1,-1,-1
0,716,9910,1,-1,-1
0,717,2400,1,-1,-1
0,718,1950,-1,-1,-1
0,719,1330,1,-1,-1
0,720,1770,-1,-1,-1
0,721,6910,-1,-1,-1
0,722,2220,-1,-1,-1
0,723,9000,1,-1,-1
0,724,3110,-1,-1,-1
0,725,3430,-1,-1,-1
0,726,5330,-1,-1,-1
0,727,3060,-1,-1,-1
0,728,7770,1,-1,-1
0,729,1360,1,-1,-1
0,730,6860,-1,-1,-1
0,731,2560,-1,-1,-1
0,732,3140,1,-1,-1
0,733,4430,-1,-1,-1
0,734,1420,1,-1,-1
0,735,4140,-1,-1,-1
0,736,2600,1,-1,-1
0,737,3080,1,-1,-1
0,738,5060,-1,-1,-1
0,739,1670,-1,-1,-1
0,740,1460,-1,-1,-1
0,741,3320,1,-1,-1
0,742,7940,-1,-1,-1
0,743,8310,1,-1,-1
0,744,1520,1,-1,-1
0,745,1450,1,-1,-1
0,746,3640,1,-1,-1
0,747,6350,1,-1,-1
0,748,4060,-1,-1,-1
0,749,3690,-1,-1,-1
0,750,1620,1,-1,-1
0,751,8650,-1,-1,-1
0,752,800,1,-1,-1
0,753,10550,-1,-1,-1
0,754,6480,1,-1,-1
0,755,1310,1,-1,-1
0,756,4630,1,-1,-1
0,757,800,1,-1,-1
0,758,1330,-1,-1,-1
0,759,2670,1,-1,-1
0,760,4360,-1,-1,-1
0,761,7290,1,-1,-1
0,762,4790,1,-1,-1
0,763,5720,-1,-1,-1
0,764,3220,1,-1,-1
0,765,4690,-1,-1,-1
0,766,4500,1,-1,-1
0,767,2910,-1,-1,-1
0,768,6190,1,-1,-1
0,769,8920,-1,-1,-1
0,770,18190,-1,-1,-1
0,771,7630,1,-1,-1
0,772,14010,1,-1,-1
0,773,2430,-1,-1,-1
0,774,2980,1,-1,-1
0,775,2170,1,-1,-1
0,776,8650,-1,-1,-1
0,777,1430,1,-1,-1
0,778,3110,-1,-1,-1
0,779,6490,-1,-1,-1
0,780,5600,1,-1,-1
0,781,2280,-1,-1,-1
0,782,2260,-1,-1,-1
0,783,3510,1,-1,-1
0,784,5370,-1,-1,-1
0,785,2930,1,-1,-1
0,786,6830,1,-1,-1
0,787,1190,1,-1,-1
0,788,5210,1,-1,-1
0,789,5510,-1,-1,-1
0,790,1890,-1,-1,-1
0,791,2590,-1,-1,-1
0,792,4290,-1,-1,-1
0,793,960,1,-1,-1
0,794,2410,-1,-1,-1
0,795,1410,-1,-1,-1
0,796,1910,-1,-1,-1
0,797,7010,1,-1,-1
0,798,9410,-1,-1,-1
0,799,1800,1,-1,-1
0,800,2990,-1,-1,-1
0,801,780,1,-1,-1
0,802,2830,1,-1,-1
0,803,10830,-1,-1,-1
0,804,1120,1,-1,-1
0,805,1160,-1,-1,-1
0,806,4380,-1,-1,-1
0,807,2810,-1,-1,-1
0,808,1240,-1,-1,-1
0,809,5530,-1,-1,-1
0,810,6860,1,-1,-1
0,811,940,-1,-1,-1
0,812,7570,1,-1,-1
0,813,4740,1,-1,-1
0,814,1920,-1,-1,-1
0,815,1580,-1,-1,-1
0,816,4930,1,-1,-1
0,817,1990,1,-1,-1
0,818,940,-1,-1,-1
0,819,2080,-1,-1,-1
0,820,3250,1,-1,-1
0,821,13500,-1,-1,-1
0,822,3050,1,-1,-1
0,823,1490,-1,-1,-1
0,824,1320,-1,-1,-1
0,825,1240,-1,-1,-1
0,826,2170,1,-1,-1
0,827,3400,1,-1,-1
0,828,960,1,-1,-1
0,829,10130,-1,-1,-1
0,830,850,1,-1,-1
0,831,1370,-1,-1,-1
0,832,950,1,-1,-1
0,833,3340,1,-1,-1
0,834,8320,-1,-1,-1
0,835,13580,-1,-1,-1
0,836,4750,-1,-1,-1
0,837,3250,1,-1,-1
0,838,3810,1,-1,-1
0,839,2050,1,-1,-1
0,840,2090,-1,-1,-1
0,841,3630,-1,-1,-1
0,842,1400,1,-1,-1
0,843,12240,1,-1,-1
0,844,1380,1,-1,-1
0,845,3710,1,-1,-1
0,846,1010,-1,-1,-1
0,847,8000,-1,-1,-1
0,848,8840,-1,-1,-1
0,849,3670,-1,-1,-1
0,850,1350,-1,-1,-1
0,851,4400,-1,-1,-1
0,852,9000,-1,-1,-1
0,853,1270,1,-1,-1
0,854,7280,1,-1,-1
0,855,6260,-1,-1,-1
0,856,5670,1,-1,-1
0,857,4800,-1,-1,-1
0,858,7740,-1,-1,-1
0,859,2350,1,-1,-1
0,860,1080,-1,-1,-1
0,861,960,-1,-1,-1
0,862,990,-1,-1,-1
0,863,6650,1,-1,-1
0,864,1320,-1,-1,-1
0,865,10760,1,-1,-1
0,866,880,-1,-1,-1
0,867,1760,1,-1,-1
0,868,1600,-1,-1,-1
0,869,9660,-1,-1,-1
0,870,2730,-1,-1,-1
0,871,3840,-1,-1,-1
0,872,8770,1,-1,-1
0,873,3010,1,-1,-1
0,874,930,-1,-1,-1
0,875,2270,1,-1,-1
0,876,6870,1,-1,-1
0,877,3640,1,-1,-1
0,878,3530,1,-1,-1
0,879,1130,-1,-1,-1
0,880,1790,1,-1,-1
0,881,3950,-1,-1,-1
0,882,5110,1,-1,-1
0,883,12220,1,-1,-1
0,884,4540,1,-1,-1
0,885,6050,-1,-1,-1
0,886,3180,-1,-1,-1
0,887,2530,-1,-1,-1
0,888,3450,1,-1,-1
0,889,5640,-1,-1,-1
0,890,2340,-1,-1,-1
0,891,2640,1,-1,-1
0,892,5250,-1,-1,-1
0,893,1730,-1,-1,-1
0,894,3820,1,-1,-1
0,895,510,1,-1,-1
0,896,13010,1,-1,-1
0,897,2560,1,-1,-1
0,898,9300,-1,-1,-1
0,899,10160,-1,-1,-1
0,900,1430,-1,-1,-1
0,901,1450,-1,-1,-1
0,902,2090,1,-1,-1
0,903,9150,-1,-1,-1
0,904,1810,1,-1,-1
0,905,1030,-1,-1,-1
0,906,6850,-1,-1,-1
0,907,1410,-1,-1,-1
0,908,6520,-1,-1,-1
0,909,850,-1,-1,-1
0,910,4090,1,-1,-1
0,911,1580,-1,-1,-1
0,912,5420,-1,-1,-1
0,913,1420,-1,-1,-1
0,914,480,1,-1,-1
0,915,730,-1,-1,-1
0,916,9310,1,-1,-1
0,917,2670,-1,-1,-1
0,918,3420,-1,-1,-1
0,919,3340,-1,-1,-1
0,920,1710,-1,-1,-1
0,921,5740,-1,-1,-1
0,922,1360,-1,-1,-1
0,923,6760,-1,-1,-1
0,924,3590,1,-1,-1
0,925,5120,1,-1,-1
0,926,4830,1,-1,-1
0,927,2450,1,-1,-1
0,928,3060,-1,-1,-1
0,929,3140,-1,-1,-1
0,930,2870,1,-1,-1
0,931,4330,-1,-1,-1
0,932,9910,-1,-1,-1
0,933,5590,-1,-1,-1
0,934,2000,-1,-1,-1
0,935,4830,1,-1,-1
0,936,620,-1,-1,-1
0,937,2230,-1,-1,-1
0,938,5040,-1,-1,-1
0,939,5370,-1,-1,-1
0,940,3790,-1,-1,-1
0,941,1220,1,-1,-1
0,942,7200,-1,-1,-1
0,943,4160,-1,-1,-1
0,944,5200,-1,-1,-1
0,945,6580,-1,-1,-1
0,946,5230,-1,-1,-1
0,947,4540,-1,-1,-1
0,948,8980,-1,-1,-1
0,949,2980,-1,-1,-1
0,950,4920,-1,-1,-1
0,951,2270,-1,-1,-1
0,952,2080,-1,-1,-1
0,953,1520,1,-1,-1
0,954,6040,-1,-1,-1
0,955,4630,1,-1,-1
0,956,4080,-1,-1,-1
0,957,1900,-1,-1,-1
0,958,2930,1,-1,-1
0,959,2590,1,-1,-1
0,960,8160,-1,-1,-1
0,961,4550,-1,-1,-1
0,962,6290,-1,-1,-1
0,963,730,-1,-1,-1
0,964,7230,-1,-1,-1
0,965,1230,-1,-1,-1
0,966,13010,1,-1,-1
0,967,3240,1,-1,-1
0,968,4110,1,-1,-1
0,969,900,-1,-1,-1
0,970,9750,-1,-1,-1
0,971,4830,1,-1,-1
0,972,940,1,-1,-1
0,973,5140,-1,-1,-1
0,974,840,-1,-1,-1
0,975,2200,1,-1,-1
0,976,3830,1,-1,-1
0,977,2210,-1,-1,-1
0,978,930,1,-1,-1
0,979,3810,1,-1,-1
0,980,4480,-1,-1,-1
0,981,2070,-1,-1,-1
0,982,2170,-1,-1,-1
0,983,3150,-1,-1,-1
0,984,4210,1,-1,-1
0,985,3530,-1,-1,-1
0,986,8860,1,-1,-1
0,987,12630,-1,-1,-1
0,988,2620,1,-1,-1
0,989,4140,1,-1,-1
0,990,2170,1,-1,-1
0,991,2830,1,-1,-1
0,992,1960,1,-1,-1
0,993,1010,-1,-1,-1
0,994,6100,1,-1,-1
0,995,2470,-1,-1,-1
0,996,3170,-1,-1,-1
0,997,3330,1,-1,-1
0,998,1040,1,-1,-1
0,999,2740,-1,-1,-1
0,1000,3430,-1,-1,-1
0,1001,5270,1,-1,-1
0,1002,4170,1,-1,-1
0,1003,4910,-1,-1,-1
0,1004,1280,1,-1,-1
0,1005,3860,-1,-1,-1
0,1006,3170,-1,-1,-1
0,1007,13220,1,-1,-1
0,1008,1930,-1,-1,-1
0,1009,7030,1,-1,-1
0,1010,13600,-1,-1,-1
0,1011,10000,-1,-1,-1
0,1012,4010,-1,-1,-1
0,1013,3000,1,-1,-1
0,1014,7330,-1,-1,-1
0,1015,12650,1,-1,-1
0,1016,6780,-1,-1,-1
0,1017,7300,1,-1,-1
0,1018,6210,-1,-1,-1
0,1019,1930,1,-1,-1
0,1020,2210,-1,-1,-1
0,1021,2650,1,-1,-1
0,1022,13090,-1,-1,-1
0,1023,3870,1,-1,-1
0,1024,2820,-1,-1,-1
0,1025,3750,1,-1,-1
0,1026,17550,1,-1,-1
0,1027,2790,1,-1,-1
0,1028,2860,-1,-1,-1
0,1029,1110,-1,-1,-1
0,1030,6690,1,-1,-1
0,1031,10580,1,-1,-1
0,1032,2900,-1,-1,-1
0,1033,2960,1,-1,-1
0,1034,2280,-1,-1,-1
0,1035,1830,-1,-1,-1
0,1036,1760,1,-1,-1
0,1037,12460,-1,-1,-1
0,1038,3740,-1,-1,-1
0,1039,2100,-1,-1,-1
0,1040,2150,-1,-1,-1
0,1041,2600,-1,-1,-1
0,1042,7380,-1,-1,-1
0,1043,1490,-1,-1,-1
0,1044,15180,1,-1,-1
0,1045,1400,-1,-1,-1
0,1046,10900,-1,-1,-1
0,1047,3790,-1,-1,-1
0,1048,6130,-1,-1,-1
0,1049,2330,-1,-1,-1
0,1050,1450,-1,-1,-1
0,1051,1020,-1,-1,-1
0,1052,1260,-1,-1,-1
0,1053,1620,1,-1,-1
0,1054,3650,-1,-1,-1
0,1055,4540,-1,-1,-1
0,1056,7860,-1,-1,-1
0,1057,2180,-1,-1,-1
0,1058,6440,1,-1,-1
0,1059,1630,1,-1,-1
0,1060,4660,-1,-1,-1
0,1061,5890,-1,-1,-1
0,1062,920,-1,-1,-1
0,1063,2250,1,-1,-1
0,1064,5530,-1,-1,-1
0,1065,3140,-1,-1,-1
0,1066,2260,1,-1,-1
0,1067,7220,-1,-1,-1
0,1068,1890,-1,-1,-1
0,1069,1250,1,-1,-1
0,1070,1050,1,-1,-1
0,1071,6920,-1,-1,-1
0,1072,2350,-1,-1,-1
0,1073,7120,1,-1,-1
0,1074,4310,-1,-1,-1
0,1075,740,-1,-1,-1
0,1076,2170,1,-1,-1
0,1077,4600,1,-1,-1
0,1078,3550,1,-1,-1
0,1079,4760,1,-1,-1
0,1080,3580,-1,-1,-1
0,1081,1930,1,-1,-1
0,1082,2310,-1,-1,-1
0,1083,1390,1,-1,-1
0,1084,4330,-1,-1,-1
0,1085,1540,1,-1,-1
0,1086,14990,-1,-1,-1
0,1087,1270,1,-1,-1
0,1088,7430,-1,-1,-1
0,1089,3440,1,-1,-1
0,1090,1980,-1,-1,-1
0,1091,1600,-1,-1,-1
0,1092,1300,-1,-1,-1
0,1093,1100,1,-1,-1
0,1094,4770,1,-1,-1
0,1095,6310,-1,-1,-1
0,1096,1780,-1,-1,-1
0,1097,2770,-1,-1,-1
0,1098,8110,1,-1,-1
0,1099,4640,-1,-1,-1
0,1100,2690,1,-1,-1
0,1101,3840,-1,-1,-1
0,1102,4390,-1,-1,-1
0,1103,6150,1,-1,-1
0,1104,2900,1,-1,-1
0,1105,15470,1,-1,-1
0,1106,5860,-1,-1,-1
0,1107,7530,-1,-1,-1
0,1108,2230,-1,-1,-1
0,1109,1160,1,-1,-1
0,1110,1760,-1,-1,-1
0,1111,3660,-1,-1,-1
0,1112,4410,-1,-1,-1
0,1113,2920,1,-1,-1
0,1114,2550,1,-1,-1
0,1115,4390,1,-1,-1
0,1116,2550,1,-1,-1
0,1117,1350,1,-1,-1
0,1118,6480,-1,-1,-1
0,1119,1650,-1,-1,-1
0,1120,1250,-1,-1,-1
0,1121,7160,-1,-1,-1
0,1122,1340,-1,-1,-1
0,1123,1840,-1,-1,-1
0,1124,3010,-1,-1,-1
0,1125,850,1,-1,-1
0,1126,1090,-1,-1,-1
0,1127,4680,1,-1,-1
0,1128,2560,1,-1,-1
0,1129,2470,-1,-1,-1
0,1130,890,1,-1,-1
0,1131,2520,1,-1,-1
0,1132,2600,-1,-1,-1
0,1133,2160,-1,-1,-1
0,1134,1320,1,-1,-1
0,1135,12430,-1,-1,-1
0,1136,11730,-1,-1,-1
0,1137,6510,-1,-1,-1
0,1138,8130,1,-1,-1
0,1139,2820,1,-1,-1
0,1140,2520,-1,-1,-1
0,1141,2060,1,-1,-1
0,1142,6950,1,-1,-1
0,1143,7260,-1,-1,-1
0,1144,560,1,-1,-1
0,1145,910,-1,-1,-1
0,1146,13750,-1,-1,-1
0,1147,2920,1,-1,-1
0,1148,3170,-1,-1,-1
0,1149,1710,-1,-1,-1
0,1150,2650,-1,-1,-1
0,1151,6950,1,-1,-1
0,1152,1720,1,-1,-1
0,1153,2490,-1,-1,-1
0,1154,890,1,-1,-1
0,1155,6300,-1,-1,-1
0,1156,5750,-1,-1,-1
0,1157,14080,-1,-1,-1
0,1158,850,-1,-1,-1
0,1159,4340,-1,-1,-1
0,1160,4420,1,-1,-1
0,1161,2810,1,-1,-1
0,1162,3790,-1,-1,-1
0,1163,1730,1,-1,-1
0,1164,3180,1,-1,-1
0,1165,2300,1,-1,-1
0,1166,4730,1,-1,-1
0,1167,5470,1,-1,-1
0,1168,4310,-1,-1,-1
0,1169,2910,1,-1,-1
0,1170,1950,-1,-1,-1
0,1171,1320,-1,-1,-1
0,1172,1790,-1,-1,-1
0,1173,1300,1,-1,-1
0,1174,11970,-1,-1,-1
0,1175,4590,-1,-1,-1
0,1176,2460,-1,-1,-1
0,1177,1960,-1,-1,-1
0,1178,1040,-1,-1,-1
0,1179,5230,-1,-1,-1
0,1180,2510,-1,-1,-1
0,1181,1090,1,-1,-1
0,1182,1910,1,-1,-1
0,1183,7490,-1,-1,-1
0,1184,1650,1,-1,-1
0,1185,5920,-1,-1,-1
0,1186,750,1,-1,-1
0,1187,2040,1,-1,-1
0,1188,9090,-1,-1,-1
0,1189,4630,-1,-1,-1
0,1190,1720,-1,-1,-1
0,1191,6760,1,-1,-1
0,1192,9080,-1,-1,-1
0,1193,1950,-1,-1,-1
0,1194,10440,1,-1,-1
0,1195,2250,1,-1,-1
0,1196,2250,-1,-1,-1
0,1197,6560,-1,-1,-1
0,1198,8820,1,-1,-1
0,1199,680,1,-1,-1
0,1200,1630,-1,0,-1
0,1201,1860,-1,0,-1
0,1202,1890,-1,0,-1
0,1203,14760,-1,0,-1
0,1204,1140,1,0,-1
0,1205,1450,-1,0,-1
0,1206,4530,1,0,-1
0,1207,14930,-1,0,-1
0,1208,9030,-1,0,-1
0,1209,1980,-1,0,-1
0,1210,11730,-1,0,-1
0,1211,1040,-1,0,-1
0,1212,8170,1,0,-1
0,1213,4660,1,0,-1
0,1214,1160,1,0,-1
0,1215,2740,-1,0,-1
0,1216,3780,-1,0,-1
0,1217,6410,-1,0,-1
0,1218,11850,-1,0,-1
0,1219,3310,1,0,-1
0,1220,1660,1,0,-1
0,1221,1320,-1,0,-1
0,1222,1460,-1,0,-1
0,1223,2950,-1,0,-1
0,1224,2790,1,0,-1
0,1225,1390,-1,0,-1
0,1226,2990,1,0,-1
0,1227,3690,-1,0,-1
0,1228,3960,-1,0,-1
0,1229,1470,-1,0,-1
0,1230,1870,-1,0,-1
0,1231,3280,-1,0,-1
0,1232,5740,-1,0,-1
0,1233,5710,-1,0,-1
0,1234,1880,-1,0,-1
0,1235,1330,1,0,-1
0,1236,3930,1,0,-1
0,1237,1640,1,0,-1
0,1238,1470,-1,0,-1
0,1239,3470,1,0,-1
0,1240,17050,1,0,-1
0,1241,3240,-1,0,-1
0,1242,8510,-1,0,-1
0,1243,940,-1,0,-1
0,1244,1320,1,0,-1
0,1245,1900,1,0,-1
0,1246,7860,1,0,-1
0,1247,760,-1,0,-1
0,1248,1390,-1,0,-1
0,1249,1400,-1,0,-1
0,1250,5870,-1,0,-1
0,1251,1820,-1,0,-1
0,1252,3090,-1,0,-1
0,1253,1640,1,0,-1
0,1254,6810,1,0,-1
0,1255,4270,1,0,-1
0,1256,4580,-1,0,-1
0,1257,4170,-1,0,-1
0,1258,2070,-1,0,-1
0,1259,6420,1,0,-1
0,1260,6240,1,0,-1
0,1261,3580,-1,0,-1
0,1262,2190,1,0,-1
0,1263,2260,-1,0,-1
0,1264,3700,1,0,-1
0,1265,860,-1,0,-1
0,1266,6810,-1,0,-1
0,1267,810,1,0,-1
0,1268,3860,1,0,-1
0,1269,2680,-1,0,-1
0,1270,2080,-1,0,-1
0,1271,960,-1,0,-1
0,1272,3550,1,0,-1
0,1273,8790,-1,0,-1
0,1274,5920,1,0,-1
0,1275,7240,-1,0,-1
0,1276,4940,1,0,-1
0,1277,12520,-1,0,-1
0,1278,6260,-1,0,-1
0,1279,2940,-1,0,-1
0,1280,1420,-1,0,-1
0,1281,11920,-1,0,-1
0,1282,2390,-1,0,-1
0,1283,5700,-1,0,-1
0,1284,5210,-1,0,-1
0,1285,11560,1,0,-1
0,1286,6290,1,0,-1
0,1287,1990,-1,0,-1
0,1288,5290,1,0,-1
0,1289,4260,-1,0,-1
0,1290,1460,1,0,-1
0,1291,6670,-1,0,-1
0,1292,1630,1,0,-1
0,1293,650,-1,0,-1
0,1294,7500,-1,0,-1
0,1295,680,1,0,-1
0,1296,8150,-1,0,-1
0,1297,2430,-1,0,-1
0,1298,3750,1,0,-1
0,1299,4970,-1,0,-1
0,1300,7400,-1,0,-1
0,1301,4570,1,0,-1
0,1302,1630,-1,0,-1
0,1303,1190,1,0,-1
0,1304,6910,1,0,-1
0,1305,9240,1,0,-1
0,1306,5810,1,0,-1
0,1307,5600,1,0,-1
0,1308,7420,1,0,-1
0,1309,2240,1,0,-1
0,1310,3580,-1,0,-1
0,1311,1460,1,0,-1
0,1312,3080,1,0,-1
0,1313,9550,-1,0,-1
0,1314,1570,-1,0,-1
0,1315,6150,-1,0,-1
0,1316,790,-1,0,-1
0,1317,1590,-1,0,-1
0,1318,7980,-1,0,-1
0,1319,17950,1,0,-1
0,1320,1830,-1,0,-1
0,1321,2250,1,0,-1
0,1322,2980,-1,0,-1
0,1323,2230,1,0,-1
0,1324,810,1,0,-1
0,1325,4830,-1,0,-1
0,1326,2160,-1,0,-1
0,1327,680,-1,0,-1
0,1328,4590,-1,0,-1
0,1329,5990,-1,0,-1
0,1330,3970,-1,0,-1
0,1331,8720,-1,0,-1
0,1332,4970,-1,0,-1
0,1333,1380,1,0,-1
0,1334,860,1,0,-1
0,1335,2220,1,0,-1
0,1336,3460,-1,0,-1
0,1337,2020,-1,0,-1
0,1338,11160,-1,0,-1
0,1339,3830,-1,0,-1
0,1340,1880,-1,0,-1
0,1341,2270,1,0,-1
0,1342,5890,1,0,-1
0,1343,7920,1,0,-1
0,1344,1470,1,0,-1
0,1345,2220,1,0,-1
0,1346,2750,1,0,-1
0,1347,3670,-1,0,-1
0,1348,1110,1,0,-1
0,1349,4480,1,0,-1
0,1350,530,-1,0,-1
0,1351,10110,1,0,-1
0,1352,4240,1,0,-1
0,1353,6220,1,0,-1
0,1354,1080,1,0,-1
0,1355,5060,-1,0,-1
0,1356,2150,-1,0,-1
0,1357,5330,1,0,-1
0,1358,2160,-1,0,-1
0,1359,4320,-1,0,-1
0,1360,6560,1,0,-1
0,1361,1240,1,0,-1
0,1362,2530,1,0,-1
0,1363,510,1,0,-1
0,1364,2880,-1,0,-1
0,1365,1520,-1,0,-1
0,1366,3340,-1,0,-1
0,1367,20020,-1,0,-1
0,1368,2940,1,0,-1
0,1369,11210,1,0,-1
0,1370,1960,1,0,-1
0,1371,4900,1,0,-1
0,1372,690,1,0,-1
0,1373,1130,-1,0,-1
0,1374,750,1,0,-1
0,1375,3160,-1,0,-1
0,1376,6110,-1,0,-1
0,1377,5280,1,0,-1
0,1378,8400,-1,0,-1
0,1379,4560,-1,0,-1
0,1380,2220,1,0,-1
0,1381,2780,1,0,-1
0,1382,1220,-1,0,-1
0,1383,6000,-1,0,-1
0,1384,2940,-1,0,-1
0,1385,4270,1,0,-1
0,1386,6960,-1,0,-1
0,1387,870,1,0,-1
0,1388,1350,1,0,-1
0,1389,1580,-1,0,-1
0,1390,18430,-1,0,-1
0,1391,3880,-1,0,-1
0,1392,1930,-1,0,-1
0,1393,4250,-1,0,-1
0,1394,2530,1,0,-1
0,1395,3110,-1,0,-1
0,1396,1980,-1,0,-1
0,1397,2510,1,0,-1
0,1398,2080,-1,0,-1
0,1399,2680,1,0,-1
0,1400,7210,-1,0,-1
0,1401,1970,1,0,-1
0,1402,6480,1,0,-1
0,1403,3330,-1,0,-1
0,1404,10560,-1,0,-1
0,1405,8840,1,0,-1
0,1406,1660,1,0,-1
0,1407,3630,-1,0,-1
0,1408,5210,1,0,-1
0,1409,2850,-1,0,-1
0,1410,2980,1,0,-1
0,1411,7200,1,0,-1
0,1412,2980,1,0,-1
0,1413,7140,-1,0,-1
0,1414,1440,-1,0,-1
0,1415,610,1,0,-1
0,1416,1430,1,0,-1
0,1417,4220,-1,0,-1
0,1418,8090,-1,0,-1
0,1419,3510,1,0,-1
0,1420,820,-1,0,-1
0,1421,860,-1,0,-1
0,1422,5650,-1,0,-1
0,1423,3960,1,0,-1
0,1424,2980,-1,0,-1
0,1425,850,-1,0,-1
0,1426,1020,-1,0,-1
0,1427,4960,1,0,-1
0,1428,1510,-1,0,-1
0,1429,1560,1,0,-1
0,1430,2160,-1,0,-1
0,1431,5870,-1,0,-1
0,1432,6630,-1,0,-1
0,1433,4250,1,0,-1
0,1434,760,1,0,-1
0,1435,5590,1,0,-1
0,1436,4480,-1,0,-1
0,1437,2050,1,0,-1
0,1438,2370,1,0,-1
0,1439,6380,-1,0,-1
0,1440,3760,1,0,-1
0,1441,6300,-1,0,-1
0,1442,3550,-1,0,-1
0,1443,5780,1,0,-1
0,1444,2530,-1,0,-1
0,1445,2810,1,0,-1
0,1446,6930,-1,0,-1
0,1447,4370,-1,0,-1
0,1448,2670,-1,0,-1
0,1449,4080,1,0,-1
0,1450,3340,-1,0,-1
0,1451,5650,-1,0,-1
0,1452,2080,1,0,-1
0,1453,1380,-1,0,-1
0,1454,11250,-1,0,-1
0,1455,4930,-1,0,-1
0,1456,7180,-1,0,-1
0,1457,4110,-1,0,-1
0,1458,2180,-1,0,-1
0,1459,2480,1,0,-1
0,1460,1910,1,0,-1
0,1461,2640,-1,0,-1
0,1462,12580,1,0,-1
0,1463,1750,-1,0,-1
0,1464,15890,1,0,-1
0,1465,5940,-1,0,-1
0,1466,11310,-1,0,-1
0,1467,3430,-1,0,-1
0,1468,1960,-1,0,-1
0,1469,3080,1,0,-1
0,1470,2450,-1,0,-1
0,1471,7150,-1,0,-1
0,1472,2910,-1,0,-1
0,1473,4440,1,0,-1
0,1474,3330,1,0,-1
0,1475,1670,1,0,-1
0,1476,470,-1,0,-1
0,1477,8460,1,0,-1
0,1478,4100,1,0,-1
0,1479,3380,-1,0,-1
0,1480,1800,1,0,-1
0,1481,2920,-1,0,-1
0,1482,1990,-1,0,-1
0,1483,7010,1,0,-1
0,1484,3420,-1,0,-1
0,1485,4600,-1,0,-1
0,1486,6280,-1,0,-1
0,1487,14320,-1,0,-1
0,1488,5300,-1,0,-1
0,1489,2760,-1,0,-1
0,1490,1630,1,0,-1
0,1491,1290,1,0,-1
0,1492,1110,-1,0,-1
0,1493,3660,1,0,-1
0,1494,7180,1,0,-1
0,1495,1180,1,0,-1
0,1496,1810,-1,0,-1
0,1497,11440,-1,0,-1
0,1498,2300,-1,0,-1
0,1499,4050,1,0,-1
0,1500,4000,-1,0,-1
0,1501,1820,-1,0,-1
0,1502,6690,1,0,-1
0,1503,5380,-1,0,-1
0,1504,980,1,0,-1
0,1505,4410,-1,0,-1
0,1506,1010,1,0,-1
0,1507,3540,-1,0,-1
0,1508,2350,-1,0,-1
0,1509,9810,-1,0,-1
0,1510,3670,-1,0,-1
0,1511,1680,-1,0,-1
0,1512,1400,1,0,-1
0,1513,3670,-1,0,-1
0,1514,6180,-1,0,-1
0,1515,8050,1,0,-1
0,1516,14710,1,0,-1
0,1517,6610,-1,0,-1
0,1518,1410,-1,0,-1
0,1519,8370,-1,0,-1
0,1520,5310,1,0,-1
0,1521,6860,1,0,-1
0,1522,450,-1,0,-1
0,1523,5830,-1,0,-1
0,1524,9630,1,0,-1
0,1525,4070,1,0,-1
0,1526,2420,-1,0,-1
0,1527,2060,1,0,-1
0,1528,3650,1,0,-1
0,1529,3790,1,0,-1
0,1530,7970,-1,0,-1
0,1531,4800,1,0,-1
0,1532,2670,-1,0,-1
0,1533,5560,-1,0,-1
0,1534,1980,-1,0,-1
0,1535,990,1,0,-1
0,1536,4550,-1,0,-1
0,1537,3540,-1,0,-1
0,1538,2200,-1,0,-1
0,1539,5810,-1,0,-1
0,1540,5600,-1,0,-1
0,1541,2080,-1,0,-1
0,1542,1750,1,0,-1
0,1543,5720,1,0,-1
0,1544,490,-1,0,-1
0,1545,6670,-1,0,-1
0,1546,970,1,0,-1
0,1547,9990,1,0,-1
0,1548,1350,-1,0,-1
0,1549,9250,1,0,-1
0,1550,3050,-1,0,-1
0,1551,3160,-1,0,-1
0,1552,6490,1,0,-1
0,1553,3350,-1,0,-1
0,1554,6010,-1,0,-1
0,1555,4320,-1,0,-1
0,1556,2620,1,0,-1
0,1557,1350,-1,0,-1
0,1558,2590,-1,0,-1
0,1559,11910,-1,0,-1
0,1560,4410,1,0,-1
0,1561,8230,-1,0,-1
0,1562,720,1,0,-1
0,1563,3020,-1,0,-1
0,1564,9620,1,0,-1
0,1565,3830,-1,0,-1
0,1566,11550,-1,0,-1
0,1567,12520,-1,0,-1
0,1568,820,1,0,-1
0,1569,3770,-1,0,-1
0,1570,2740,1,0,-1
0,1571,800,-1,0,-1
0,1572,3690,1,0,-1
0,1573,6840,-1,0,-1
0,1574,2470,1,0,-1
0,1575,2760,-1,0,-1
0,1576,2320,1,0,-1
0,1577,1810,-1,0,-1
0,1578,4050,-1,0,-1
0,1579,4840,-1,0,-1
0,1580,1710,-1,0,-1
0,1581,11170,1,0,-1
0,1582,14950,-1,0,-1
0,1583,1610,-1,0,-1
0,1584,1510,-1,0,-1
0,1585,2910,1,0,-1
0,1586,7010,-1,0,-1
0,1587,3550,-1,0,-1
0,1588,2710,-1,0,-1
0,1589,2260,-1,0,-1
0,1590,2990,-1,0,-1
0,1591,3630,1,0,-1
0,1592,8700,-1,0,-1
0,1593,3760,1,0,-1
0,1594,3620,-1,0,-1
0,1595,3810,1,0,-1
0,1596,10770,1,0,-1
0,1597,3840,1,0,-1
0,1598,1730,-1,0,-1
0,1599,1130,-1,0,-1
0,1600,5890,1,-1,-1
0,1601,4110,1,-1,-1
0,1602,3610,1,-1,-1
0,1603,3750,-1,-1,-1
0,1604,4020,-1,-1,-1
0,1605,2250,-1,-1,-1
0,1606,7070,-1,-1,-1
0,1607,3870,-1,-1,-1
0,1608,7570,1,-1,-1
0,1609,5920,1,-1,-1
0,1610,920,-1,-1,-1
0,1611,17230,1,-1,-1
0,1612,4440,1,-1,-1
0,1613,4560,-1,-1,-1
0,1614,3630,-1,-1,-1
0,1615,1880,-1,-1,-1
0,1616,1380,1,-1,-1
0,1617,3770,1,-1,-1
0,1618,3900,-1,-1,-1
0,1619,4780,1,-1,-1
0,1620,1990,-1,-1,-1
0,1621,2320,1,-1,-1
0,1622,12040,-1,-1,-1
0,1623,840,1,-1,-1
0,1624,1670,-1,-1,-1
0,1625,20140,-1,-1,-1
0,1626,1240,1,-1,-1
0,1627,3280,1,-1,-1
0,1628,4680,1,-1,-1
0,1629,6840,-1,-1,-1
0,1630,9530,-1,-1,-1
0,1631,4110,1,-1,-1
0,1632,3510,1,-1,-1
0,1633,3860,1,-1,-1
0,1634,2910,1,-1,-1
0,1635,3420,1,-1,-1
0,1636,6430,-1,-1,-1
0,1637,2370,1,-1,-1
0,1638,1760,-1,-1,-1
0,1639,4610,-1,-1,-1
0,1640,590,-1,-1,-1
0,1641,900,1,-1,-1
0,1642,1660,1,-1,-1
0,1643,2430,-1,-1,-1
0,1644,6020,1,-1,-1
0,1645,2830,1,-1,-1
0,1646,1830,1,-1,-1
0,1647,2170,-1,-1,-1
0,1648,13890,1,-1,-1
0,1649,4450,-1,-1,-1
0,1650,4040,1,-1,-1
0,1651,3030,-1,-1,-1
0,1652,7350,1,-1,-1
0,1653,11700,1,-1,-1
0,1654,1520,1,-1,-1
0,1655,2400,1,-1,-1
0,1656,620,1,-1,-1
0,1657,1880,1,-1,-1
0,1658,6280,-1,-1,-1
0,1659,2100,1,-1,-1
0,1660,1560,1,-1,-1
0,1661,9800,-1,-1,-1
0,1662,8100,1,-1,-1
0,1663,25650,1,-1,-1
0,1664,1070,-1,-1,-1
0,1665,1040,1,-1,-1
0,1666,1600,1,-1,-1
0,1667,6320,1,-1,-1
0,1668,900,1,-1,-1
0,1669,2850,1,-1,-1
0,1670,2980,1,-1,-1
0,1671,1300,-1,-1,-1
0,1672,4810,1,-1,-1
0,1673,2330,1,-1,-1
0,1674,3720,1,-1,-1
0,1675,970,1,-1,-1
0,1676,2030,1,-1,-1
0,1677,1420,-1,-1,-1
0,1678,3470,1,-1,-1
0,1679,5280,-1,-1,-1
0,1680,1350,-1,-1,-1
0,1681,790,1,-1,-1
0,1682,4680,1,-1,-1
0,1683,1880,1,-1,-1
0,1684,3740,-1,-1,-1
0,1685,1740,1,-1,-1
0,1686,2800,-1,-1,-1
0,1687,910,1,-1,-1
0,1688,1850,1,-1,-1
0,1689,1280,1,-1,-1
0,1690,3670,1,-1,-1
0,1691,2800,-1,-1,-1
0,1692,1000,1,-1,-1
0,1693,21050,1,-1,-1
0,1694,18650,-1,-1,-1
0,1695,4040,1,-1,-1
0,1696,3210,-1,-1,-1
0,1697,1820,1,-1,-1
0,1698,11840,-1,-1,-1
0,1699,7970,-1,-1,-1
0,1700,5340,1,-1,-1
0,1701,1710,1,-1,-1
0,1702,4830,-1,-1,-1
0,1703,460,1,-1,-1
0,1704,3160,1,-1,-1
0,1705,6320,1,-1,-1
0,1706,4700,-1,-1,-1
0,1707,700,1,-1,-1
0,1708,13380,-1,-1,-1
0,1709,16010,-1,-1,-1
0,1710,1000,1,-1,-1
0,1711,4360,-1,-1,-1
0,1712,6250,-1,-1,-1
0,1713,10360,-1,-1,-1
0,1714,7400,-1,-1,-1
0,1715,1640,1,-1,-1
0,1716,6410,1,-1,-1
0,1717,2880,-1,-1,-1
0,1718,2470,1,-1,-1
0,1719,700,1,-1,-1
0,1720,6500,-1,-1,-1
0,1721,4370,1,-1,-1
0,1722,1040,1,-1,-1
0,1723,6180,1,-1,-1
0,1724,6140,1,-1,-1
0,1725,1410,1,-1,-1
0,1726,6240,1,-1,-1
0,1727,5440,1,-1,-1
0,1728,1380,1,-1,-1
0,1729,2090,1,-1,-1
0,1730,2550,1,-1,-1
0,1731,8940,1,-1,-1
0,1732,580,1,-1,-1
0,1733,4090,1,-1,-1
0,1734,1080,1,-1,-1
0,1735,2390,-1,-1,-1
0,1736,2480,1,-1,-1
0,1737,930,1,-1,-1
0,1738,1070,-1,-1,-1
0,1739,7550,1,-1,-1
0,1740,830,1,-1,-1
0,1741,1190,-1,-1,-1
0,1742,4670,-1,-1,-1
0,1743,11460,1,-1,-1
0,1744,700,1,-1,-1
0,1745,6630,-1,-1,-1
0,1746,1360,1,-1,-1
0,1747,8890,-1,-1,-1
0,1748,6550,-1,-1,-1
0,1749,8760,1,-1,-1
0,1750,2460,1,-1,-1
0,1751,1100,-1,-1,-1
0,1752,2490,-1,-1,-1
0,1753,5570,1,-1,-1
0,1754,4210,1,-1,-1
0,1755,6700,1,-1,-1
0,1756,1050,-1,-1,-1
0,1757,5360,1,-1,-1
0,1758,3370,1,-1,-1
0,1759,8730,-1,-1,-1
0,1760,2670,1,-1,-1
0,1761,3680,-1,-1,-1
0,1762,4680,-1,-1,-1
0,1763,7820,1,-1,-1
0,1764,1070,1,-1,-1
0,1765,1050,1,-1,-1
0,1766,4550,1,-1,-1
0,1767,2290,1,-1,-1
0,1768,3250,1,-1,-1
0,1769,1940,-1,-1,-1
0,1770,550,-1,-1,-1
0,1771,1090,-1,-1,-1
0,1772,3180,1,-1,-1
0,1773,9650,-1,-1,-1
0,1774,4470,1,-1,-1
0,1775,3950,-1,-1,-1
0,1776,880,-1,-1,-1
0,1777,2850,-1,-1,-1
0,1778,6880,1,-1,-1
0,1779,750,1,-1,-1
0,1780,1940,-1,-1,-1
0,1781,1090,1,-1,-1
0,1782,3210,1,-1,-1
0,1783,8840,-1,-1,-1
0,1784,3240,-1,-1,-1
0,1785,630,1,-1,-1
0,1786,3280,-1,-1,-1
0,1787,3850,-1,-1,-1
0,1788,2410,1,-1,-1
0,1789,5400,1,-1,-1
0,1790,6120,-1,-1,-1
0,1791,630,1,-1,-1
0,1792,1730,1,-1,-1
0,1793,1310,-1,-1,-1
0,1794,1860,1,-1,-1
0,1795,2430,1,-1,-1
0,1796,5800,-1,-1,-1
0,1797,1490,1,-1,-1
0,1798,1320,-1,-1,-1
0,1799,460,-1,-1,-1
0,1800,4500,-1,-1,-1
0,1801,4490,-1,-1,-1
0,1802,950,1,-1,-1
0,1803,1560,1,-1,-1
0,1804,5160,-1,-1,-1
0,1805,6360,1,-1,-1
0,1806,3870,-1,-1,-1
0,1807,1240,1,-1,-1
0,1808,6870,1,-1,-1
0,1809,720,1,-1,-1
0,1810,990,-1,-1,-1
0,1811,5110,-1,-1,-1
0,1812,6130,-1,-1,-1
0,1813,2410,-1,-1,-1
0,1814,2160,1,-1,-1
0,1815,1420,1,-1,-1
0,1816,8160,1,-1,-1
0,1817,1790,1,-1,-1
0,1818,6110,1,-1,-1
0,1819,2890,1,-1,-1
0,1820,10970,-1,-1,-1
0,1821,4210,-1,-1,-1
0,1822,4380,1,-1,-1
0,1823,3560,1,-1,-1
0,1824,2350,1,-1,-1
0,1825,7380,-1,-1,-1
0,1826,1430,1,-1,-1
0,1827,2180,-1,-1,-1
0,1828,3050,1,-1,-1
0,1829,9990,1,-1,-1
0,1830,1890,1,-1,-1
0,1831,3400,-1,-1,-1
0,1832,11010,1,-1,-1
0,1833,4830,1,-1,-1
0,1834,3560,1,-1,-1
0,1835,3930,-1,-1,-1
0,1836,710,-1,-1,-1
0,1837,750,1,-1,-1
0,1838,2980,-1,-1,-1
0,1839,3170,1,-1,-1
0,1840,2260,1,-1,-1
0,1841,2370,1,-1,-1
0,1842,9630,1,-1,-1
0,1843,3590,1,-1,-1
0,1844,7870,1,-1,-1
0,1845,2960,1,-1,-1
0,1846,2080,1,-1,-1
0,1847,1750,-1,-1,-1
0,1848,800,1,-1,-1
0,1849,1310,-1,-1,-1
0,1850,7170,-1,-1,-1
0,1851,2980,1,-1,-1
0,1852,9730,1,-1,-1
0,1853,1600,1,-1,-1
0,1854,2860,1,-1,-1
0,1855,5290,1,-1,-1
0,1856,1880,-1,-1,-1
0,1857,3060,-1,-1,-1
0,1858,1260,1,-1,-1
0,1859,2080,-1,-1,-1
0,1860,3710,1,-1,-1
0,1861,1880,1,-1,-1
0,1862,760,1,-1,-1
0,1863,3540,-1,-1,-1
0,1864,1090,1,-1,-1
0,1865,3370,1,-1,-1
0,1866,2680,-1,-1,-1
0,1867,2170,-1,-1,-1
0,1868,1950,1,-1,-1
0,1869,2340,-1,-1,-1
0,1870,2550,-1,-1,-1
0,1871,5960,1,-1,-1
0,1872,1980,-1,-1,-1
0,1873,8470,-1,-1,-1
0,1874,1720,-1,-1,-1
0,1875,740,1,-1,-1
0,1876,2150,-1,-1,-1
0,1877,10450,-1,-1,-1
0,1878,3780,1,-1,-1
0,1879,2920,-1,-1,-1
0,1880,7740,1,-1,-1
0,1881,690,1,-1,-1
0,1882,4290,-1,-1,-1
0,1883,1580,1,-1,-1
0,1884,1700,-1,-1,-1
0,1885,4610,-1,-1,-1
0,1886,2170,1,-1,-1
0,1887,2210,-1,-1,-1
0,1888,2950,1,-1,-1
0,1889,4690,-1,-1,-1
0,1890,3410,1,-1,-1
0,1891,2570,1,-1,-1
0,1892,1160,1,-1,-1
0,1893,2110,1,-1,-1
0,1894,1770,1,-1,-1
0,1895,1000,-1,-1,-1
0,1896,5850,-1,-1,-1
0,1897,1860,1,-1,-1
0,1898,7420,1,-1,-1
0,1899,3430,-1,-1,-1
0,1900,880,-1,-1,-1
0,1901,1330,-1,-1,-1
0,1902,1680,-1,-1,-1
0,1903,2050,-1,-1,-1
0,1904,1830,1,-1,-1
0,1905,6120,-1,-1,-1
0,1906,1300,1,-1,-1
0,1907,4480,1,-1,-1
0,1908,2390,1,-1,-1
0,1909,6820,-1,-1,-1
0,1910,6110,1,-1,-1
0,1911,840,-1,-1,-1
0,1912,1650,-1,-1,-1
0,1913,2760,1,-1,-1
0,1914,2660,1,-1,-1
0,1915,5700,1,-1,-1
0,1916,4030,-1,-1,-1
0,1917,6290,1,-1,-1
0,1918,880,-1,-1,-1
0,1919,1910,1,-1,-1
0,1920,3230,-1,-1,-1
0,1921,5120,1,-1,-1
0,1922,4680,1,-1,-1
0,1923,840,1,-1,-1
0,1924,1340,1,-1,-1
0,1925,2190,-1,-1,-1
0,1926,1150,1,-1,-1
0,1927,5680,1,-1,-1
0,1928,1170,1,-1,-1
0,1929,1870,1,-1,-1
0,1930,2440,1,-1,-1
0,1931,8890,1,-1,-1
0,1932,2380,-1,-1,-1
0,1933,7510,1,-1,-1
0,1934,1300,1,-1,-1
0,1935,2590,-1,-1,-1
0,1936,1280,1,-1,-1
0,1937,25990,1,-1,-1
0,1938,5440,-1,-1,-1
0,1939,630,1,-1,-1
0,1940,540,1,-1,-1
0,1941,1970,1,-1,-1
0,1942,10020,1,-1,-1
0,1943,810,1,-1,-1
0,1944,4920,-1,-1,-1
0,1945,2280,-1,-1,-1
0,1946,8930,1,-1,-1
0,1947,12150,-1,-1,-1
0,1948,670,-1,-1,-1
0,1949,1160,-1,-1,-1
0,1950,2350,1,-1,-1
0,1951,900,-1,-1,-1
0,1952,480,1,-1,-1
0,1953,390,-1,-1,-1
0,1954,1560,1,-1,-1
0,1955,3970,1,-1,-1
0,1956,3300,1,-1,-1
0,1957,1320,-1,-1,-1
0,1958,5580,1,-1,-1
0,1959,3850,-1,-1,-1
0,1960,1630,1,-1,-1
0,1961,6460,-1,-1,-1
0,1962,5340,1,-1,-1
0,1963,2760,-1,-1,-1
0,1964,4070,-1,-1,-1
0,1965,4730,1,-1,-1
0,1966,11450,1,-1,-1
0,1967,1300,-1,-1,-1
0,1968,6850,1,-1,-1
0,1969,4600,-1,-1,-1
0,1970,860,1,-1,-1
0,1971,3310,1,-1,-1
0,1972,2130,-1,-1,-1
0,1973,2200,-1,-1,-1
0,1974,2320,1,-1,-1
0,1975,3740,1,-1,-1
0,1976,8390,1,-1,-1
0,1977,1600,-1,-1,-1
0,1978,2330,-1,-1,-1
0,1979,1820,1,-1,-1
0,1980,1810,-1,-1,-1
0,1981,4200,1,-1,-1
0,1982,5620,1,-1,-1
0,1983,5620,-1,-1,-1
0,1984,4680,-1,-1,-1
0,1985,5910,1,-1,-1
0,1986,1860,-1,-1,-1
0,1987,1580,-1,-1,-1
0,1988,8930,-1,-1,-1
0,1989,2210,-1,-1,-1
0,1990,3700,1,-1,-1
0,1991,4110,-1,-1,-1
0,1992,2790,-1,-1,-1
0,1993,1050,1,-1,-1
0,1994,4660,-1,-1,-1
0,1995,6240,1,-1,-1
0,1996,7710,-1,-1,-1
0,1997,1200,1,-1,-1
0,1998,14730,-1,-1,-1
0,1999,1910,-1,-1,-1
0,2000,5160,-1,1,1
0,2001,2650,-1,1,1
0,2002,6200,1,1,1
0,2003,1950,-1,1,1
0,2004,860,-1,1,1
0,2005,3560,1,1,1
0,2006,5560,-1,1,1
0,2007,12750,-1,1,1
0,2008,5830,-1,1,1
0,2009,2540,1,1,1
0,2010,950,-1,1,1
0,2011,1710,1,1,1
0,2012,4550,-1,1,1
0,2013,3450,-1,1,1
0,2014,4570,1,1,1
0,2015,2310,1,1,1
0,2016,2180,1,1,1
0,2017,2060,-1,1,1
0,2018,1470,1,1,1
0,2019,12620,-1,1,1
0,2020,3730,-1,1,1
0,2021,1480,1,1,1
0,2022,4230,1,1,1
0,2023,4350,1,1,1
0,2024,2190,1,1,1
0,2025,6900,-1,1,1
0,2026,17420,-1,1,1
0,2027,8600,-1,1,1
0,2028,1180,1,1,1
0,2029,7310,1,1,1
0,2030,1610,-1,1,1
0,2031,3340,1,1,1
0,2032,2690,-1,1,1
0,2033,7170,-1,1,1
0,2034,4120,1,1,1
0,2035,5550,-1,1,1
0,2036,5050,1,1,1
0,2037,9500,1,1,1
0,2038,10960,1,1,1
0,2039,4020,1,1,1
0,2040,2040,1,1,1
0,2041,5690,-1,1,1
0,2042,1790,1,1,1
0,2043,3490,-1,1,1
0,2044,2670,-1,1,1
0,2045,3320,1,1,1
0,2046,2630,-1,1,1
0,2047,3670,-1,1,1
0,2048,3380,1,1,1
0,2049,2810,1,1,1
0,2050,1350,1,1,1
0,2051,2990,-1,1,1
0,2052,5630,-1,1,1
0,2053,7620,1,1,1
0,2054,8670,-1,1,1
0,2055,9740,1,1,1
0,2056,5750,1,1,1
0,2057,3210,-1,1,1
0,2058,1980,-1,1,1
0,2059,1080,1,1,1
0,2060,1980,-1,1,1
0,2061,10150,-1,1,1
0,2062,5710,1,1,1
0,2063,1290,-1,1,1
0,2064,6150,1,1,1
0,2065,6360,1,1,1
0,2066,1510,-1,1,1
0,2067,690,1,1,1
0,2068,860,1,1,1
0,2069,4710,-1,1,1
0,2070,2660,1,1,1
0,2071,6810,-1,1,1
0,2072,3300,1,1,1
0,2073,3920,1,1,1
0,2074,1950,1,1,1
0,2075,2230,1,1,1
0,2076,6720,1,1,1
0,2077,1060,-1,1,1
0,2078,640,-1,1,1
0,2079,1500,-1,1,1
0,2080,1200,-1,1,1
0,2081,6360,-1,1,1
0,2082,2390,1,1,1
0,2083,8220,-1,1,1
0,2084,2570,1,1,1
0,2085,3320,-1,1,1
0,2086,3160,1,1,1
0,2087,5590,1,1,1
0,2088,1810,1,1,1
0,2089,5080,-1,1,1
0,2090,4060,1,1,1
0,2091,2860,1,1,1
0,2092,3250,1,1,1
0,2093,1870,-1,1,1
0,2094,420,-1,1,1
0,2095,5960,-1,1,1
0,2096,3300,-1,1,1
0,2097,3930,1,1,1
0,2098,7840,1,1,1
0,2099,3210,-1,1,1
0,2100,1090,1,1,1
0,2101,1770,-1,1,1
0,2102,1280,-1,1,1
0,2103,2300,1,1,1
0,2104,4170,1,1,1
0,2105,3250,-1,1,1
0,2106,3900,1,1,1
0,2107,3080,1,1,1
0,2108,9000,1,1,1
0,2109,9580,1,1,1
0,2110,4760,1,1,1
0,2111,2260,1,1,1
0,2112,13720,1,1,1
0,2113,5850,1,1,1
0,2114,3810,1,1,1
0,2115,6750,-1,1,1
0,2116,3830,1,1,1
0,2117,4970,1,1,1
0,2118,3530,1,1,1
0,2119,2860,1,1,1
0,2120,10590,-1,1,1
0,2121,7790,1,1,1
0,2122,3920,1,1,1
0,2123,8560,-1,1,1
0,2124,1460,-1,1,1
0,2125,6690,1,1,1
0,2126,5390,-1,1,1
0,2127,1630,1,1,1
0,2128,960,1,1,1
0,2129,3370,-1,1,1
0,2130,1950,-1,1,1
0,2131,11290,1,1,1
0,2132,1910,1,1,1
0,2133,390,-1,1,1
0,2134,4950,1,1,1
0,2135,3110,-1,1,1
0,2136,5790,1,1,1
0,2137,3040,-1,1,1
0,2138,7820,-1,1,1
0,2139,9720,-1,1,1
0,2140,7640,-1,1,1
0,2141,6260,1,1,1
0,2142,17070,1,1,1
0,2143,710,-1,1,1
0,2144,3830,-1,1,1
0,2145,1660,-1,1,1
0,2146,730,1,1,1
0,2147,810,1,1,1
0,2148,4420,1,1,1
0,2149,760,-1,1,1
0,2150,13380,1,1,1
0,2151,4360,-1,1,1
0,2152,5120,-1,1,1
0,2153,3310,1,1,1
0,2154,610,1,1,1
0,2155,4860,-1,1,1
0,2156,5250,1,1,1
0,2157,6530,-1,1,1
0,2158,2820,-1,1,1
0,2159,2590,1,1,1
0,2160,2640,-1,1,1
0,2161,3180,1,1,1
0,2162,1780,-1,1,1
0,2163,8060,1,1,1
0,2164,4620,1,1,1
0,2165,10780,1,1,1
0,2166,5090,-1,1,1
0,2167,7520,-1,1,1
0,2168,700,-1,1,1
0,2169,15280,1,1,1
0,2170,1550,1,1,1
0,2171,2230,-1,1,1
0,2172,7360,1,1,1
0,2173,16740,1,1,1
0,2174,1840,-1,1,1
0,2175,3580,1,1,1
0,2176,3260,1,1,1
0,2177,1600,1,1,1
0,2178,6140,-1,1,1
0,2179,940,1,1,1
0,2180,6650,1,1,1
0,2181,5650,1,1,1
0,2182,1080,-1,1,1
0,2183,8440,1,1,1
0,2184,3010,1,1,1
0,2185,2870,1,1,1
0,2186,670,-1,1,1
0,2187,1610,-1,1,1
0,2188,3890,-1,1,1
0,2189,7340,1,1,1
0,2190,1850,1,1,1
0,2191,7650,-1,1,1
0,2192,1850,-1,1,1
0,2193,590,-1,1,1
0,2194,1190,1,1,1
0,2195,6890,1,1,1
0,2196,1860,1,1,1
0,2197,2020,1,1,1
0,2198,530,1,1,1
0,2199,2790,-1,1,1
0,2200,8450,1,1,1
0,2201,9880,1,1,1
0,2202,1820,-1,1,1
0,2203,4640,-1,1,1
0,2204,6370,1,1,1
0,2205,17230,-1,1,1
0,2206,4760,-1,1,1
0,2207,1890,-1,1,1
0,2208,1740,-1,1,1
0,2209,5630,-1,1,1
0,2210,1870,-1,1,1
0,2211,5020,-1,1,1
0,2212,3600,1,1,1
0,2213,11510,-1,1,1
0,2214,3990,1,1,1
0,2215,3470,-1,1,1
0,2216,2120,1,1,1
0,2217,5910,1,1,1
0,2218,5750,1,1,1
0,2219,10640,-1,1,1
0,2220,1670,1,1,1
0,2221,1460,1,1,1
0,2222,2280,1,1,1
0,2223,6680,-1,1,1
0,2224,3280,1,1,1
0,2225,4320,-1,1,1
0,2226,7790,1,1,1
0,2227,3330,1,1,1
0,2228,3260,-1,1,1
0,2229,3250,1,1,1
0,2230,3180,-1,1,1
0,2231,2540,1,1,1
0,2232,620,1,1,1
0,2233,740,1,1,1
0,2234,2840,1,1,1
0,2235,4570,1,1,1
0,2236,1250,1,1,1
0,2237,7490,-1,1,1
0,2238,3750,1,1,1
0,2239,5000,1,1,1
0,2240,660,1,1,1
0,2241,3120,-1,1,1
0,2242,2000,1,1,1
0,2243,2610,1,1,1
0,2244,6560,1,1,1
0,2245,6840,1,1,1
0,2246,1420,-1,1,1
0,2247,1200,1,1,1
0,2248,2660,-1,1,1
0,2249,3790,1,1,1
0,2250,640,-1,1,1
0,2251,610,-1,1,1
0,2252,7850,1,1,1
0,2253,1720,-1,1,1
0,2254,7990,-1,1,1
0,2255,3760,-1,1,1
0,2256,1800,1,1,1
0,2257,1860,1,1,1
0,2258,2820,1,1,1
0,2259,3020,1,1,1
0,2260,3690,1,1,1
0,2261,4260,1,1,1
0,2262,3880,-1,1,1
0,2263,2110,1,1,1
0,2264,2750,-1,1,1
0,2265,1700,1,1,1
0,2266,1420,1,1,1
0,2267,1510,1,1,1
0,2268,10710,1,1,1
0,2269,3360,-1,1,1
0,2270,1930,-1,1,1
0,2271,410,1,1,1
0,2272,9600,-1,1,1
0,2273,2100,1,1,1
0,2274,1350,1,1,1
0,2275,4540,-1,1,1
0,2276,1100,1,1,1
0,2277,4900,-1,1,1
0,2278,1140,1,1,1
0,2279,1550,-1,1,1
0,2280,6480,1,1,1
0,2281,930,-1,1,1
0,2282,3050,1,1,1
0,2283,910,-1,1,1
0,2284,1070,1,1,1
0,2285,1740,1,1,1
0,2286,9320,1,1,1
0,2287,1010,-1,1,1
0,2288,560,1,1,1
0,2289,3620,1,1,1
0,2290,8960,1,1,1
0,2291,1240,1,1,1
0,2292,1020,1,1,1
0,2293,4530,1,1,1
0,2294,4630,-1,1,1
0,2295,4210,-1,1,1
0,2296,3190,1,1,1
0,2297,640,-1,1,1
0,2298,6080,1,1,1
0,2299,2150,1,1,1
0,2300,2040,-1,1,1
0,2301,4990,-1,1,1
0,2302,3590,-1,1,1
0,2303,3750,1,1,1
0,2304,3470,-1,1,1
0,2305,8140,1,1,1
0,2306,2990,1,1,1
0,2307,8600,1,1,1
0,2308,3860,-1,1,1
0,2309,1080,-1,1,1
0,2310,5660,-1,1,1
0,2311,5580,1,1,1
0,2312,3870,1,1,1
0,2313,5050,1,1,1
0,2314,8500,1,1,1
0,2315,7190,1,1,1
0,2316,1500,-1,1,1
0,2317,2720,-1,1,1
0,2318,3900,1,1,1
0,2319,690,-1,1,1
0,2320,5570,1,1,1
0,2321,8700,1,1,1
0,2322,2020,1,1,1
0,2323,2470,-1,1,1
0,2324,1620,-1,1,1
0,2325,4970,1,1,1
0,2326,960,-1,1,1
0,2327,12600,1,1,1
0,2328,1320,1,1,1
0,2329,4770,-1,1,1
0,2330,4490,1,1,1
0,2331,1470,1,1,1
0,2332,3920,-1,1,1
0,2333,2620,1,1,1
0,2334,1400,1,1,1
0,2335,2330,-1,1,1
0,2336,8780,-1,1,1
0,2337,2040,1,1,1
0,2338,2460,1,1,1
0,2339,860,-1,1,1
0,2340,3460,-1,1,1
0,2341,1440,1,1,1
0,2342,1660,1,1,1
0,2343,12920,1,1,1
0,2344,6080,-1,1,1
0,2345,2010,1,1,1
0,2346,2850,1,1,1
0,2347,2100,-1,1,1
0,2348,4580,-1,1,1
0,2349,5090,1,1,1
0,2350,2100,1,1,1
0,2351,670,1,1,1
0,2352,9750,1,1,1
0,2353,2640,-1,1,1
0,2354,9550,1,1,1
0,2355,2930,1,1,1
0,2356,1720,1,1,1
0,2357,4540,-1,1,1
0,2358,1100,-1,1,1
0,2359,7340,1,1,1
0,2360,1100,-1,1,1
0,2361,1190,-1,1,1
0,2362,5650,1,1,1
0,2363,2240,1,1,1
0,2364,15700,-1,1,1
0,2365,2180,-1,1,1
0,2366,2440,-1,1,1
0,2367,980,-1,1,1
0,2368,5530,-1,1,1
0,2369,6310,1,1,1
0,2370,7880,1,1,1
0,2371,5610,-1,1,1
0,2372,3420,-1,1,1
0,2373,1630,-1,1,1
0,2374,1540,-1,1,1
0,2375,1250,-1,1,1
0,2376,13460,-1,1,1
0,2377,3360,-1,1,1
0,2378,1940,1,1,1
0,2379,2880,1,1,1
0,2380,2070,1,1,1
0,2381,4940,1,1,1
0,2382,3060,1,1,1
0,2383,2300,1,1,1
0,2384,5400,-1,1,1
0,2385,11500,-1,1,1
0,2386,1280,-1,1,1
0,2387,2720,-1,1,1
0,2388,3070,-1,1,1
0,2389,1120,-1,1,1
0,2390,7120,1,1,1
0,2391,12320,1,1,1
0,2392,8060,-1,1,1
0,2393,7270,-1,1,1
0,2394,4390,-1,1,1
0,2395,1460,1,1,1
0,2396,710,1,1,1
0,2397,1990,-1,1,1
0,2398,1640,1,1,1
0,2399,8480,-1,1,1
0,2400,2360,1,0,0
0,2401,10790,1,0,0
0,2402,1990,1,0,0
0,2403,2690,1,0,0
0,2404,14720,-1,0,0
0,2405,6580,-1,0,0
0,2406,3990,1,0,0
0,2407,3870,-1,0,0
0,2408,15760,1,0,0
0,2409,1160,-1,0,0
0,2410,8120,1,0,0
0,2411,2120,-1,0,0
0,2412,6620,-1,0,0
0,2413,2740,1,0,0
0,2414,12200,-1,0,0
0,2415,8880,-1,0,0
0,2416,1590,1,0,0
0,2417,1810,1,0,0
0,2418,8980,-1,0,0
0,2419,2740,1,0,0
0,2420,1450,1,0,0
0,2421,10420,-1,0,0
0,2422,4570,1,0,0
0,2423,5580,1,0,0
0,2424,4630,-1,0,0
0,2425,2550,-1,0,0
0,2426,5850,-1,0,0
0,2427,3830,-1,0,0
0,2428,3890,-1,0,0
0,2429,1800,1,0,0
0,2430,1710,-1,0,0
0,2431,14260,1,0,0
0,2432,2450,-1,0,0
0,2433,1420,-1,0,0
0,2434,2230,1,0,0
0,2435,1500,1,0,0
0,2436,7190,1,0,0
0,2437,5860,1,0,0
0,2438,810,1,0,0
0,2439,2520,1,0,0
0,2440,9350,1,0,0
0,2441,1510,-1,0,0
0,2442,1390,-1,0,0
0,2443,2280,-1,0,0
0,2444,930,-1,0,0
0,2445,1070,1,0,0
0,2446,2490,1,0,0
0,2447,4900,-1,0,0
0,2448,2550,1,0,0
0,2449,2410,1,0,0
0,2450,810,1,0,0
0,2451,1640,1,0,0
0,2452,5710,1,0,0
0,2453,6020,-1,0,0
0,2454,2140,-1,0,0
0,2455,1670,1,0,0
0,2456,760,1,0,0
0,2457,3000,-1,0,0
0,2458,13900,1,0,0
0,2459,8890,1,0,0
0,2460,4440,-1,0,0
0,2461,3060,1,0,0
0,2462,11360,-1,0,0
0,2463,870,-1,0,0
0,2464,2360,1,0,0
0,2465,2440,1,0,0
0,2466,4550,1,0,0
0,2467,6470,1,0,0
0,2468,1860,1,0,0
0,2469,3610,1,0,0
0,2470,3510,1,0,0
0,2471,820,1,0,0
0,2472,2250,1,0,0
0,2473,4220,1,0,0
0,2474,4940,-1,0,0
0,2475,4780,-1,0,0
0,2476,8110,1,0,0
0,2477,7210,-1,0,0
0,2478,1910,-1,0,0
0,2479,1920,1,0,0
0,2480,6640,-1,0,0
0,2481,2850,1,0,0
0,2482,780,1,0,0
0,2483,2620,-1,0,0
0,2484,1440,1,0,0
0,2485,2880,-1,0,0
0,2486,7580,1,0,0
0,2487,4680,-1,0,0
0,2488,3430,1,0,0
0,2489,1330,-1,0,0
0,2490,2660,-1,0,0
0,2491,4410,-1,0,0
0,2492,2080,-1,0,0
0,2493,5180,1,0,0
0,2494,970,-1,0,0
0,2495,660,1,0,0
0,2496,2620,-1,0,0
0,2497,1290,1,0,0
0,2498,6500,1,0,0
0,2499,2130,1,0,0
0,2500,3160,-1,0,0
0,2501,3330,1,0,0
0,2502,3380,-1,0,0
0,2503,1420,-1,0,0
0,2504,5340,-1,0,0
0,2505,5880,-1,0,0
0,2506,1670,-1,0,0
0,2507,1650,1,0,0
0,2508,2250,1,0,0
0,2509,1380,-1,0,0
0,2510,5370,1,0,0
0,2511,5660,1,0,0
0,2512,7700,1,0,0
0,2513,5980,1,0,0
0,2514,6230,-1,0,0
0,2515,4880,-1,0,0
0,2516,400,1,0,0
0,2517,580,-1,0,0
0,2518,1720,1,0,0
0,2519,11290,-1,0,0
0,2520,8400,-1,0,0
0,2521,600,1,0,0
0,2522,1630,-1,0,0
0,2523,13530,1,0,0
0,2524,4290,-1,0,0
0,2525,3180,-1,0,0
0,2526,2480,1,0,0
0,2527,2580,1,0,0
0,2528,3780,-1,0,0
0,2529,3840,-1,0,0
0,2530,970,-1,0,0
0,2531,11640,1,0,0
0,2532,13660,-1,0,0
0,2533,3030,-1,0,0
0,2534,1430,1,0,0
0,2535,6810,1,0,0
0,2536,2500,1,0,0
0,2537,4310,1,0,0
0,2538,3550,1,0,0
0,2539,3610,-1,0,0
0,2540,4140,1,0,0
0,2541,3950,1,0,0
0,2542,6120,-1,0,0
0,2543,3100,1,0,0
0,2544,4000,1,0,0
0,2545,4380,-1,0,0
0,2546,4160,-1,0,0
0,2547,2790,-1,0,0
0,2548,10080,1,0,0
0,2549,2760,-1,0,0
0,2550,1700,1,0,0
0,2551,6000,1,0,0
0,2552,4860,-1,0,0
0,2553,790,1,0,0
0,2554,8530,-1,0,0
0,2555,4110,-1,0,0
0,2556,4670,-1,0,0
0,2557,3430,1,0,0
0,2558,1970,-1,0,0
0,2559,1640,1,0,0
0,2560,3330,1,0,0
0,2561,4130,1,0,0
0,2562,2280,-1,0,0
0,2563,4850,-1,0,0
0,2564,4870,1,0,0
0,2565,4390,-1,0,0
0,2566,2980,1,0,0
0,2567,3610,-1,0,0
0,2568,2580,-1,0,0
0,2569,1800,1,0,0
0,2570,6600,-1,0,0
0,2571,1980,-1,0,0
0,2572,2080,1,0,0
0,2573,18600,1,0,0
0,2574,6480,1,0,0
0,2575,1860,1,0,0
0,2576,3320,1,0,0
0,2577,4200,1,0,0
0,2578,1070,1,0,0
0,2579,7590,-1,0,0
0,2580,1010,-1,0,0
0,2581,2450,-1,0,0
0,2582,15620,-1,0,0
0,2583,6610,-1,0,0
0,2584,9270,-1,0,0
0,2585,6870,1,0,0
0,2586,3500,-1,0,0
0,2587,6000,1,0,0
0,2588,5260,-1,0,0
0,2589,10120,-1,0,0
0,2590,1540,1,0,0
0,2591,15760,-1,0,0
0,2592,1440,1,0,0
0,2593,9340,1,0,0
0,2594,2550,-1,0,0
0,2595,920,-1,0,0
0,2596,3430,1,0,0
0,2597,750,-1,0,0
0,2598,3510,-1,0,0
0,2599,7140,1,0,0
0,2600,4950,-1,0,0
0,2601,880,-1,0,0
0,2602,6490,-1,0,0
0,2603,7030,-1,0,0
0,2604,5900,-1,0,0
0,2605,3520,1,0,0
0,2606,4450,1,0,0
0,2607,1530,-1,0,0
0,2608,650,-1,0,0
0,2609,2370,-1,0,0
0,2610,1910,1,0,0
0,2611,8080,1,0,0
0,2612,2100,-1,0,0
0,2613,2650,-1,0,0
0,2614,4560,1,0,0
0,2615,6500,1,0,0
0,2616,2460,-1,0,0
0,2617,970,-1,0,0
0,2618,3890,1,0,0
0,2619,3060,1,0,0
0,2620,3430,1,0,0
0,2621,2540,-1,0,0
0,2622,910,1,0,0
0,2623,7840,-1,0,0
0,2624,6710,-1,0,0
0,2625,1560,1,0,0
0,2626,3360,-1,0,0
0,2627,7750,-1,0,0
0,2628,6190,-1,0,0
0,2629,2790,-1,0,0
0,2630,1130,-1,0,0
0,2631,4470,1,0,0
0,2632,1710,-1,0,0
0,2633,770,1,0,0
0,2634,2990,1,0,0
0,2635,6190,1,0,0
0,2636,3390,1,0,0
0,2637,7290,1,0,0
0,2638,1770,1,0,0
0,2639,4520,-1,0,0
0,2640,2570,-1,0,0
0,2641,5650,1,0,0
0,2642,3960,1,0,0
0,2643,830,-1,0,0
0,2644,2710,-1,0,0
0,2645,4340,-1,0,0
0,2646,3180,1,0,0
0,2647,1970,1,0,0
0,2648,2970,-1,0,0
0,2649,3520,-1,0,0
0,2650,9840,1,0,0
0,2651,8750,-1,0,0
0,2652,4080,1,0,0
0,2653,2230,1,0,0
0,2654,1950,-1,0,0
0,2655,2020,1,0,0
0,2656,5060,-1,0,0
0,2657,1240,-1,0,0
0,2658,1300,1,0,0
0,2659,6690,1,0,0
0,2660,1600,-1,0,0
0,2661,5490,1,0,0
0,2662,2620,-1,0,0
0,2663,16090,-1,0,0
0,2664,13500,1,0,0
0,2665,1120,-1,0,0
0,2666,1380,1,0,0
0,2667,12590,1,0,0
0,2668,1820,-1,0,0
0,2669,620,1,0,0
0,2670,8560,1,0,0
0,2671,3620,1,0,0
0,2672,5410,1,0,0
0,2673,2820,-1,0,0
0,2674,4430,1,0,0
0,2675,5300,-1,0,0
0,2676,6730,1,0,0
0,2677,2110,-1,0,0
0,2678,2390,1,0,0
0,2679,12040,1,0,0
0,2680,7080,1,0,0
0,2681,2710,1,0,0
0,2682,4330,-1,0,0
0,2683,2820,1,0,0
0,2684,4850,1,0,0
0,2685,3030,-1,0,0
0,2686,2790,1,0,0
0,2687,3410,-1,0,0
0,2688,1130,1,0,0
0,2689,2070,-1,0,0
0,2690,3520,1,0,0
0,2691,5240,1,0,0
0,2692,2000,-1,0,0
0,2693,760,1,0,0
0,2694,5520,1,0,0
0,2695,620,-1,0,0
0,2696,2080,1,0,0
0,2697,4080,1,0,0
0,2698,1080,-1,0,0
0,2699,7890,1,0,0
0,2700,4370,1,0,0
0,2701,11420,-1,0,0
0,2702,2460,1,0,0
0,2703,21830,1,0,0
0,2704,1080,1,0,0
0,2705,1500,-1,0,0
0,2706,2950,1,0,0
0,2707,4440,-1,0,0
0,2708,1970,1,0,0
0,2709,13660,-1,0,0
0,2710,2840,-1,0,0
0,2711,1290,-1,0,0
0,2712,960,-1,0,0
0,2713,2650,-1,0,0
0,2714,840,1,0,0
0,2715,2970,-1,0,0
0,2716,2660,1,0,0
0,2717,34830,1,0,0
0,2718,4340,1,0,0
0,2719,4180,1,0,0
0,2720,790,-1,0,0
0,2721,2840,-1,0,0
0,2722,7120,1,0,0
0,2723,950,-1,0,0
0,2724,7990,1,0,0
0,2725,530,-1,0,0
0,2726,4290,-1,0,0
0,2727,2290,-1,0,0
0,2728,3080,-1,0,0
0,2729,2330,-1,0,0
0,2730,3500,-1,0,0
0,2731,970,-1,0,0
0,2732,790,1,0,0
0,2733,6810,-1,0,0
0,2734,2320,1,0,0
0,2735,830,1,0,0
0,2736,6320,1,0,0
0,2737,3610,1,0,0
0,2738,5090,-1,0,0
0,2739,1940,1,0,0
0,2740,1110,-1,0,0
0,2741,2740,1,0,0
0,2742,1360,-1,0,0
0,2743,2510,-1,0,0
0,2744,2370,1,0,0
0,2745,1660,-1,0,0
0,2746,5470,1,0,0
0,2747,3110,1,0,0
0,2748,1910,-1,0,0
0,2749,5360,1,0,0
0,2750,1930,1,0,0
0,2751,3200,1,0,0
0,2752,980,1,0,0
0,2753,2320,1,0,0
0,2754,2800,1,0,0
0,2755,5520,1,0,0
0,2756,4270,1,0,0
0,2757,2360,-1,0,0
0,2758,1930,-1,0,0
0,2759,5920,-1,0,0
0,2760,11490,-1,0,0
0,2761,1810,1,0,0
0,2762,3370,1,0,0
0,2763,2180,-1,0,0
0,2764,3820,1,0,0
0,2765,6010,1,0,0
0,2766,390,-1,0,0
0,2767,760,1,0,0
0,2768,1120,1,0,0
0,2769,15990,-1,0,0
0,2770,1110,-1,0,0
0,2771,3670,-1,0,0
0,2772,2920,1,0,0
0,2773,3600,1,0,0
0,2774,5490,1,0,0
0,2775,3480,1,0,0
0,2776,2230,1,0,0
0,2777,1150,-1,0,0
0,2778,4450,1,0,0
0,2779,8480,-1,0,0
0,2780,6820,1,0,0
0,2781,1380,-1,0,0
0,2782,12160,1,0,0
0,2783,2850,1,0,0
0,2784,3700,1,0,0
0,2785,4100,-1,0,0
0,2786,2430,1,0,0
0,2787,1340,-1,0,0
0,2788,3660,1,0,0
0,2789,1850,1,0,0
0,2790,3010,-1,0,0
0,2791,4900,-1,0,0
0,2792,5410,-1,0,0
0,2793,5950,-1,0,0
0,2794,6230,1,0,0
0,2795,1140,1,0,0
0,2796,6570,1,0,0
0,2797,3210,-1,0,0
0,2798,21030,-1,0,0
0,2799,1400,1,0,0
0,2800,3490,1,1,0
0,2801,6990,-1,1,0
0,2802,1960,-1,1,0
0,2803,3860,1,1,0
0,2804,360,1,1,0
0,2805,1630,-1,1,0
0,2806,1990,-1,1,0
0,2807,4210,-1,1,0
0,2808,2190,-1,1,0
0,2809,740,1,1,0
0,2810,5820,-1,1,0
0,2811,1470,1,1,0
0,2812,5770,-1,1,0
0,2813,1320,-1,1,0
0,2814,520,-1,1,0
0,2815,3260,-1,1,0
0,2816,6180,-1,1,0
0,2817,14060,-1,1,0
0,2818,1510,-1,1,0
0,2819,12400,-1,1,0
0,2820,2760,-1,1,0
0,2821,6370,-1,1,0
0,2822,6800,-1,1,0
0,2823,870,-1,1,0
0,2824,2590,-1,1,0
0,2825,4190,-1,1,0
0,2826,2560,-1,1,0
0,2827,3340,-1,1,0
0,2828,6880,-1,1,0
0,2829,1120,1,1,0
0,2830,3260,-1,1,0
0,2831,3870,1,1,0
0,2832,3360,1,1,0
0,2833,1770,-1,1,0
0,2834,1080,-1,1,0
0,2835,7560,1,1,0
0,2836,720,-1,1,0
0,2837,5560,-1,1,0
0,2838,1150,-1,1,0
0,2839,9170,-1,1,0
0,2840,1740,1,1,0
0,2841,1240,-1,1,0
0,2842,5630,1,1,0
0,2843,2210,1,1,0
0,2844,1540,1,1,0
0,2845,1230,1,1,0
0,2846,2390,1,1,0
0,2847,9710,-1,1,0
0,2848,3060,-1,1,0
0,2849,3380,-1,1,0
0,2850,2710,-1,1,0
0,2851,1530,-1,1,0
0,2852,4930,-1,1,0
0,2853,4680,-1,1,0
0,2854,7240,1,1,0
0,2855,4670,1,1,0
0,2856,3150,-1,1,0
0,2857,2310,1,1,0
0,2858,4080,-1,1,0
0,2859,2420,-1,1,0
0,2860,3140,1,1,0
0,2861,2760,-1,1,0
0,2862,1660,-1,1,0
0,2863,2260,-1,1,0
0,2864,1050,-1,1,0
0,2865,2130,1,1,0
0,2866,3730,1,1,0
0,2867,4810,-1,1,0
0,2868,1300,-1,1,0
0,2869,1170,1,1,0
0,2870,620,-1,1,0
0,2871,880,1,1,0
0,2872,920,1,1,0
0,2873,2360,-1,1,0
0,2874,1820,1,1,0
0,2875,1330,1,1,0
0,2876,3140,-1,1,0
0,2877,2620,1,1,0
0,2878,6440,-1,1,0
0,2879,2010,-1,1,0
0,2880,2570,1,1,0
0,2881,3890,-1,1,0
0,2882,7150,-1,1,0
0,2883,4170,1,1,0
0,2884,1740,-1,1,0
0,2885,1810,-1,1,0
0,2886,2830,-1,1,0
0,2887,1180,-1,1,0
0,2888,1600,-1,1,0
0,2889,1930,-1,1,0
0,2890,14640,1,1,0
0,2891,1880,1,1,0
0,2892,1870,1,1,0
0,2893,450,1,1,0
0,2894,2970,1,1,0
0,2895,14660,-1,1,0
0,2896,9120,1,1,0
0,2897,2920,1,1,0
0,2898,4900,-1,1,0
0,2899,8460,-1,1,0
0,2900,4130,-1,1,0
0,2901,2750,-1,1,0
0,2902,1930,-1,1,0
0,2903,2800,-1,1,0
0,2904,4970,1,1,0
0,2905,2840,-1,1,0
0,2906,3660,-1,1,0
0,2907,2210,-1,1,0
0,2908,1770,-1,1,0
0,2909,2450,-1,1,0
0,2910,3480,-1,1,0
0,2911,1100,1,1,0
0,2912,6150,-1,1,0
0,2913,5750,1,1,0
0,2914,3910,1,1,0
0,2915,620,-1,1,0
0,2916,7320,1,1,0
0,2917,4700,-1,1,0
0,2918,2000,-1,1,0
0,2919,1390,1,1,0
0,2920,2360,-1,1,0
0,2921,1430,-1,1,0
0,2922,3650,-1,1,0
0,2923,15630,-1,1,0
0,2924,6840,-1,1,0
0,2925,3880,1,1,0
0,2926,13990,-1,1,0
0,2927,2740,-1,1,0
0,2928,1850,1,1,0
0,2929,12140,1,1,0
0,2930,1740,-1,1,0
0,2931,3610,-1,1,0
0,2932,4260,-1,1,0
0,2933,3960,-1,1,0
0,2934,3420,-1,1,0
0,2935,3710,-1,1,0
0,2936,730,-1,1,0
0,2937,3380,-1,1,0
0,2938,1760,-1,1,0
0,2939,12550,-1,1,0
0,2940,4730,1,1,0
0,2941,2480,-1,1,0
0,2942,3550,-1,1,0
0,2943,1220,-1,1,0
0,2944,5690,-1,1,0
0,2945,3170,-1,1,0
0,2946,6090,-1,1,0
0,2947,3770,-1,1,0
0,2948,2290,1,1,0
0,2949,7020,1,1,0
0,2950,4980,-1,1,0
0,2951,4720,-1,1,0
0,2952,2930,1,1,0
0,2953,3570,1,1,0
0,2954,1230,1,1,0
0,2955,6500,-1,1,0
0,2956,4280,-1,1,0
0,2957,1030,-1,1,0
0,2958,1470,-1,1,0
0,2959,830,-1,1,0
0,2960,5260,1,1,0
0,2961,1050,1,1,0
0,2962,5590,-1,1,0
0,2963,5400,1,1,0
0,2964,6720,-1,1,0
0,2965,6150,-1,1,0
0,2966,7170,-1,1,0
0,2967,3000,1,1,0
0,2968,9190,-1,1,0
0,2969,1250,1,1,0
0,2970,1640,1,1,0
0,2971,4500,1,1,0
0,2972,2000,-1,1,0
0,2973,6920,-1,1,0
0,2974,3010,-1,1,0
0,2975,1620,1,1,0
0,2976,1050,1,1,0
0,2977,1120,1,1,0
0,2978,3580,1,1,0
0,2979,790,-1,1,0
0,2980,2450,-1,1,0
0,2981,3320,-1,1,0
0,2982,1530,-1,1,0
0,2983,7670,-1,1,0
0,2984,2350,1,1,0
0,2985,2950,-1,1,0
0,2986,5560,-1,1,0
0,2987,2150,-1,1,0
0,2988,4890,1,1,0
0,2989,930,-1,1,0
0,2990,890,-1,1,0
0,2991,1590,-1,1,0
0,2992,3520,-1,1,0
0,2993,3090,-1,1,0
0,2994,1980,1,1,0
0,2995,2430,-1,1,0
0,2996,8950,-1,1,0
0,2997,1570,-1,1,0
0,2998,1490,1,1,0
0,2999,7330,-1,1,0
0,3000,3780,-1,1,0
0,3001,1120,-1,1,0
0,3002,5030,-1,1,0
0,3003,4700,1,1,0
0,3004,1600,-1,1,0
0,3005,590,-1,1,0
0,3006,1740,1,1,0
0,3007,3930,-1,1,0
0,3008,5040,-1,1,0
0,3009,7570,1,1,0
0,3010,4130,-1,1,0
0,3011,5010,-1,1,0
0,3012,5330,-1,1,0
0,3013,2220,-1,1,0
0,3014,4950,-1,1,0
0,3015,3250,-1,1,0
0,3016,1590,-1,1,0
0,3017,4480,1,1,0
0,3018,6540,1,1,0
0,3019,1280,-1,1,0
0,3020,820,-1,1,0
0,3021,3520,-1,1,0
0,3022,5640,-1,1,0
0,3023,790,-1,1,0
0,3024,4430,-1,1,0
0,3025,3720,-1,1,0
0,3026,790,-1,1,0
0,3027,1040,-1,1,0
0,3028,3360,1,1,0
0,3029,6510,-1,1,0
0,3030,8020,-1,1,0
0,3031,1380,-1,1,0
0,3032,1010,-1,1,0
0,3033,1790,-1,1,0
0,3034,3480,1,1,0
0,3035,4640,-1,1,0
0,3036,5030,1,1,0
0,3037,3120,-1,1,0
0,3038,680,-1,1,0
0,3039,2640,1,1,0
0,3040,7280,-1,1,0
0,3041,3450,-1,1,0
0,3042,2530,-1,1,0
0,3043,1310,-1,1,0
0,3044,1670,-1,1,0
0,3045,1100,-1,1,0
0,3046,1270,1,1,0
0,3047,2200,1,1,0
0,3048,1190,-1,1,0
0,3049,900,-1,1,0
0,3050,1810,1,1,0
0,3051,2460,-1,1,0
0,3052,6200,-1,1,0
0,3053,6420,-1,1,0
0,3054,7450,-1,1,0
0,3055,1750,-1,1,0
0,3056,6290,1,1,0
0,3057,4970,-1,1,0
0,3058,8100,-1,1,0
0,3059,5850,1,1,0
0,3060,3210,-1,1,0
0,3061,2290,-1,1,0
0,3062,1070,1,1,0
0,3063,2110,-1,1,0
0,3064,1910,-1,1,0
0,3065,3260,-1,1,0
0,3066,8280,1,1,0
0,3067,7310,-1,1,0
0,3068,1270,-1,1,0
0,3069,4100,1,1,0
0,3070,1250,-1,1,0
0,3071,3240,-1,1,0
0,3072,9180,-1,1,0
0,3073,2960,1,1,0
0,3074,1100,-1,1,0
0,3075,720,1,1,0
0,3076,7590,-1,1,0
0,3077,1070,-1,1,0
0,3078,7820,-1,1,0
0,3079,1650,-1,1,0
0,3080,1030,-1,1,0
0,3081,1690,-1,1,0
0,3082,4140,-1,1,0
0,3083,2510,-1,1,0
0,3084,5370,1,1,0
0,3085,1270,-1,1,0
0,3086,1620,-1,1,0
0,3087,1300,1,1,0
0,3088,2530,-1,1,0
0,3089,830,-1,1,0
0,3090,3760,-1,1,0
0,3091,5610,-1,1,0
0,3092,9390,1,1,0
0,3093,1960,1,1,0
0,3094,12570,-1,1,0
0,3095,4120,-1,1,0
0,3096,1160,1,1,0
0,3097,20780,-1,1,0
0,3098,4700,-1,1,0
0,3099,4800,-1,1,0
0,3100,3520,-1,1,0
0,3101,6970,-1,1,0
0,3102,2250,-1,1,0
0,3103,3880,-1,1,0
0,3104,1950,1,1,0
0,3105,820,-1,1,0
0,3106,2060,-1,1,0
0,3107,1130,-1,1,0
0,3108,3080,-1,1,0
0,3109,4320,1,1,0
0,3110,960,-1,1,0
0,3111,8140,-1,1,0
0,3112,2760,-1,1,0
0,3113,1230,1,1,0
0,3114,3860,1,1,0
0,3115,3470,-1,1,0
0,3116,1270,1,1,0
0,3117,540,-1,1,0
0,3118,5280,-1,1,0
0,3119,8360,-1,1,0
0,3120,1360,-1,1,0
0,3121,3780,1,1,0
0,3122,600,1,1,0
0,3123,1190,-1,1,0
0,3124,1570,-1,1,0
0,3125,6200,1,1,0
0,3126,12440,-1,1,0
0,3127,2560,-1,1,0
0,3128,4380,-1,1,0
0,3129,7370,-1,1,0
0,3130,20870,-1,1,0
0,3131,1540,-1,1,0
0,3132,2450,-1,1,0
0,3133,2750,-1,1,0
0,3134,7850,-1,1,0
0,3135,4330,1,1,0
0,3136,2830,1,1,0
0,3137,7620,-1,1,0
0,3138,6140,-1,1,0
0,3139,3820,-1,1,0
0,3140,2460,-1,1,0
0,3141,3630,-1,1,0
0,3142,1990,-1,1,0
0,3143,2630,-1,1,0
0,3144,2190,1,1,0
0,3145,1740,-1,1,0
0,3146,3270,-1,1,0
0,3147,1230,-1,1,0
0,3148,1440,-1,1,0
0,3149,1670,-1,1,0
0,3150,1410,1,1,0
0,3151,4100,-1,1,0
0,3152,2460,-1,1,0
0,3153,2830,-1,1,0
0,3154,1860,-1,1,0
0,3155,8770,1,1,0
0,3156,2590,1,1,0
0,3157,11540,-1,1,0
0,3158,5170,-1,1,0
0,3159,5870,-1,1,0
0,3160,2000,-1,1,0
0,3161,1530,-1,1,0
0,3162,990,-1,1,0
0,3163,6000,-1,1,0
0,3164,2080,1,1,0
0,3165,1100,-1,1,0
0,3166,1390,1,1,0
0,3167,7460,1,1,0
0,3168,10940,1,1,0
0,3169,3890,-1,1,0
0,3170,6140,-1,1,0
0,3171,2450,-1,1,0
0,3172,1560,-1,1,0
0,3173,4160,-1,1,0
0,3174,5280,-1,1,0
0,3175,2580,1,1,0
0,3176,4250,-1,1,0
0,3177,13550,-1,1,0
0,3178,5800,-1,1,0
0,3179,850,1,1,0
0,3180,2710,-1,1,0
0,3181,2210,1,1,0
0,3182,870,-1,1,0
0,3183,1650,-1,1,0
0,3184,6890,-1,1,0
0,3185,5440,-1,1,0
0,3186,6690,-1,1,0
0,3187,2520,-1,1,0
0,3188,3180,-1,1,0
0,3189,2190,-1,1,0
0,3190,1490,-1,1,0
0,3191,490,-1,1,0
0,3192,6870,1,1,0
0,3193,2870,1,1,0
0,3194,2630,1,1,0
0,3195,3770,-1,1,0
0,3196,4170,1,1,0
0,3197,2110,1,1,0
0,3198,1710,-1,1,0
0,3199,5840,-1,1,0
0,3200,2240,-1,-1,-1
0,3201,3310,-1,-1,-1
0,3202,1540,1,-1,-1
0,3203,3550,1,-1,-1
0,3204,6310,-1,-1,-1
0,3205,6160,-1,-1,-1
0,3206,2350,-1,-1,-1
0,3207,10570,-1,-1,-1
0,3208,2670,-1,-1,-1
0,3209,920,-1,-1,-1
0,3210,11230,-1,-1,-1
0,3211,500,-1,-1,-1
0,3212,7220,-1,-1,-1
0,3213,6840,1,-1,-1
0,3214,8580,-1,-1,-1
0,3215,12390,1,-1,-1
0,3216,3840,1,-1,-1
0,3217,4120,1,-1,-1
0,3218,770,1,-1,-1
0,3219,4200,1,-1,-1
0,3220,9400,1,-1,-1
0,3221,3480,-1,-1,-1
0,3222,6790,-1,-1,-1
0,3223,1820,-1,-1,-1
0,3224,5570,1,-1,-1
0,3225,3470,-1,-1,-1
0,3226,9360,-1,-1,-1
0,3227,1300,1,-1,-1
0,3228,3400,-1,-1,-1
0,3229,2590,-1,-1,-1
0,3230,2830,1,-1,-1
0,3231,6330,1,-1,-1
0,3232,1540,-1,-1,-1
0,3233,12480,-1,-1,-1
0,3234,3590,-1,-1,-1
0,3235,2480,-1,-1,-1
0,3236,7060,-1,-1,-1
0,3237,9880,1,-1,-1
0,3238,2730,1,-1,-1
0,3239,31060,1,-1,-1
0,3240,8340,1,-1,-1
0,3241,2740,1,-1,-1
0,3242,3230,1,-1,-1
0,3243,1280,-1,-1,-1
0,3244,1420,1,-1,-1
0,3245,2260,-1,-1,-1
0,3246,5580,-1,-1,-1
0,3247,1810,1,-1,-1
0,3248,1530,-1,-1,-1
0,3249,1200,1,-1,-1
0,3250,2690,1,-1,-1
0,3251,6870,1,-1,-1
0,3252,20690,-1,-1,-1
0,3253,1910,-1,-1,-1
0,3254,1000,1,-1,-1
0,3255,1280,1,-1,-1
0,3256,2300,-1,-1,-1
0,3257,7370,-1,-1,-1
0,3258,1310,-1,-1,-1
0,3259,3800,-1,-1,-1
0,3260,6810,-1,-1,-1
0,3261,3090,1,-1,-1
0,3262,7920,1,-1,-1
0,3263,2980,1,-1,-1
0,3264,13250,1,-1,-1
0,3265,1030,-1,-1,-1
0,3266,7510,1,-1,-1
0,3267,5340,-1,-1,-1
0,3268,5220,1,-1,-1
0,3269,1730,1,-1,-1
0,3270,9930,-1,-1,-1
0,3271,3430,-1,-1,-1
0,3272,2750,-1,-1,-1
0,3273,3710,-1,-1,-1
0,3274,13800,-1,-1,-1
0,3275,3790,1,-1,-1
0,3276,3620,-1,-1,-1
0,3277,850,-1,-1,-1
0,3278,1940,-1,-1,-1
0,3279,1150,1,-1,-1
0,3280,4120,1,-1,-1
0,3281,5190,-1,-1,-1
0,3282,4700,-1,-1,-1
0,3283,6360,-1,-1,-1
0,3284,2990,-1,-1,-1
0,3285,690,-1,-1,-1
0,3286,4230,1,-1,-1
0,3287,1510,1,-1,-1
0,3288,1090,-1,-1,-1
0,3289,8090,1,-1,-1
0,3290,3010,1,-1,-1
0,3291,1250,1,-1,-1
0,3292,1900,-1,-1,-1
0,3293,6750,1,-1,-1
0,3294,2050,1,-1,-1
0,3295,8180,1,-1,-1
0,3296,1280,1,-1,-1
0,3297,960,-1,-1,-1
0,3298,3720,-1,-1,-1
0,3299,1410,1,-1,-1
0,3300,830,1,-1,-1
0,3301,7200,1,-1,-1
0,3302,7750,-1,-1,-1
0,3303,4030,1,-1,-1
0,3304,3590,1,-1,-1
0,3305,3720,-1,-1,-1
0,3306,940,1,-1,-1
0,3307,13190,-1,-1,-1
0,3308,1000,-1,-1,-1
0,3309,5170,-1,-1,-1
0,3310,5640,-1,-1,-1
0,3311,1490,1,-1,-1
0,3312,3500,-1,-1,-1
0,3313,7810,-1,-1,-1
0,3314,1800,1,-1,-1
0,3315,2410,1,-1,-1
0,3316,1830,1,-1,-1
0,3317,4120,1,-1,-1
0,3318,930,1,-1,-1
0,3319,510,1,-1,-1
0,3320,1370,-1,-1,-1
0,3321,2170,-1,-1,-1
0,3322,21000,-1,-1,-1
0,3323,5500,-1,-1,-1
0,3324,2900,1,-1,-1
0,3325,3010,-1,-1,-1
0,3326,1360,-1,-1,-1
0,3327,1040,1,-1,-1
0,3328,3660,-1,-1,-1
0,3329,710,1,-1,-1
0,3330,4770,-1,-1,-1
0,3331,5490,1,-1,-1
0,3332,3590,1,-1,-1
0,3333,12580,1,-1,-1
0,3334,2720,-1,-1,-1
0,3335,13500,-1,-1,-1
0,3336,2620,-1,-1,-1
0,3337,2010,-1,-1,-1
0,3338,3780,1,-1,-1
0,3339,3490,1,-1,-1
0,3340,4260,-1,-1,-1
0,3341,1460,1,-1,-1
0,3342,2710,1,-1,-1
0,3343,4190,1,-1,-1
0,3344,1980,1,-1,-1
0,3345,970,1,-1,-1
0,3346,1710,-1,-1,-1
0,3347,11860,1,-1,-1
0,3348,18010,1,-1,-1
0,3349,11930,1,-1,-1
0,3350,4620,1,-1,-1
0,3351,7150,-1,-1,-1
0,3352,600,-1,-1,-1
0,3353,6110,1,-1,-1
0,3354,4960,1,-1,-1
0,3355,1950,1,-1,-1
0,3356,10610,-1,-1,-1
0,3357,2670,1,-1,-1
0,3358,12470,-1,-1,-1
0,3359,1430,1,-1,-1
0,3360,3690,1,-1,-1
0,3361,2090,-1,-1,-1
0,3362,2480,1,-1,-1
0,3363,6700,-1,-1,-1
0,3364,9120,-1,-1,-1
0,3365,3210,1,-1,-1
0,3366,2450,1,-1,-1
0,3367,3320,-1,-1,-1
0,3368,1360,-1,-1,-1
0,3369,1920,-1,-1,-1
0,3370,1430,1,-1,-1
0,3371,730,1,-1,-1
0,3372,1720,-1,-1,-1
0,3373,16260,1,-1,-1
0,3374,4170,-1,-1,-1
0,3375,6790,-1,-1,-1
0,3376,630,1,-1,-1
0,3377,8150,-1,-1,-1
0,3378,9040,1,-1,-1
0,3379,2570,1,-1,-1
0,3380,5170,-1,-1,-1
0,3381,3560,-1,-1,-1
0,3382,8600,-1,-1,-1
0,3383,1390,1,-1,-1
0,3384,4570,1,-1,-1
0,3385,1630,-1,-1,-1
0,3386,2600,1,-1,-1
0,3387,1810,1,-1,-1
0,3388,5360,-1,-1,-1
0,3389,5290,1,-1,-1
0,3390,2320,1,-1,-1
0,3391,9270,-1,-1,-1
0,3392,7490,-1,-1,-1
0,3393,1380,-1,-1,-1
0,3394,1720,-1,-1,-1
0,3395,3680,-1,-1,-1
0,3396,2320,1,-1,-1
0,3397,10150,-1,-1,-1
0,3398,870,-1,-1,-1
0,3399,2110,-1,-1,-1
0,3400,1160,1,-1,-1
0,3401,3110,1,-1,-1
0,3402,2110,-1,-1,-1
0,3403,2400,-1,-1,-1
0,3404,4710,-1,-1,-1
0,3405,1670,1,-1,-1
0,3406,1920,-1,-1,-1
0,3407,18810,1,-1,-1
0,3408,4240,-1,-1,-1
0,3409,13000,1,-1,-1
0,3410,9530,-1,-1,-1
0,3411,7630,-1,-1,-1
0,3412,9540,1,-1,-1
0,3413,3090,1,-1,-1
0,3414,13520,1,-1,-1
0,3415,970,1,-1,-1
0,3416,2700,1,-1,-1
0,3417,1290,1,-1,-1
0,3418,1230,1,-1,-1
0,3419,2980,-1,-1,-1
0,3420,2310,1,-1,-1
0,3421,2320,1,-1,-1
0,3422,450,1,-1,-1
0,3423,1610,-1,-1,-1
0,3424,3220,-1,-1,-1
0,3425,2850,1,-1,-1
0,3426,350,-1,-1,-1
0,3427,4860,-1,-1,-1
0,3428,6510,-1,-1,-1
0,3429,1200,1,-1,-1
0,3430,1170,-1,-1,-1
0,3431,6310,-1,-1,-1
0,3432,6470,-1,-1,-1
0,3433,1230,-1,-1,-1
0,3434,4180,-1,-1,-1
0,3435,2000,-1,-1,-1
0,3436,3420,-1,-1,-1
0,3437,610,-1,-1,-1
0,3438,3020,1,-1,-1
0,3439,1940,1,-1,-1
0,3440,5590,1,-1,-1
0,3441,5580,1,-1,-1
0,3442,5620,-1,-1,-1
0,3443,4500,1,-1,-1
0,3444,1370,1,-1,-1
0,3445,1340,-1,-1,-1
0,3446,3830,1,-1,-1
0,3447,2310,-1,-1,-1
0,3448,810,-1,-1,-1
0,3449,2450,1,-1,-1
0,3450,650,-1,-1,-1
0,3451,1920,1,-1,-1
0,3452,1080,1,-1,-1
0,3453,22410,-1,-1,-1
0,3454,3930,1,-1,-1
0,3455,1680,1,-1,-1
0,3456,4250,1,-1,-1
0,3457,640,1,-1,-1
0,3458,1080,1,-1,-1
0,3459,4190,-1,-1,-1
0,3460,2280,1,-1,-1
0,3461,9420,1,-1,-1
0,3462,8130,1,-1,-1
0,3463,6980,-1,-1,-1
0,3464,1390,-1,-1,-1
0,3465,9350,-1,-1,-1
0,3466,1170,1,-1,-1
0,3467,3930,-1,-1,-1
0,3468,6330,-1,-1,-1
0,3469,3360,1,-1,-1
0,3470,1110,1,-1,-1
0,3471,2490,-1,-1,-1
0,3472,1950,1,-1,-1
0,3473,2910,-1,-1,-1
0,3474,8240,-1,-1,-1
0,3475,1210,1,-1,-1
0,3476,6200,-1,-1,-1
0,3477,3400,1,-1,-1
0,3478,3320,1,-1,-1
0,3479,1870,-1,-1,-1
0,3480,7340,-1,-1,-1
0,3481,5750,-1,-1,-1
0,3482,7070,-1,-1,-1
0,3483,2190,1,-1,-1
0,3484,5970,-1,-1,-1
0,3485,14500,-1,-1,-1
0,3486,1490,1,-1,-1
0,3487,4900,-1,-1,-1
0,3488,820,-1,-1,-1
0,3489,860,1,-1,-1
0,3490,10810,1,-1,-1
0,3491,1630,-1,-1,-1
0,3492,7350,-1,-1,-1
0,3493,4660,-1,-1,-1
0,3494,1660,1,-1,-1
0,3495,4160,-1,-1,-1
0,3496,6390,1,-1,-1
0,3497,6090,1,-1,-1
0,3498,510,1,-1,-1
0,3499,10150,-1,-1,-1
0,3500,2610,-1,-1,-1
0,3501,3120,-1,-1,-1
0,3502,7300,-1,-1,-1
0,3503,5740,1,-1,-1
0,3504,2360,1,-1,-1
0,3505,1930,-1,-1,-1
0,3506,2720,-1,-1,-1
0,3507,1400,1,-1,-1
0,3508,7720,-1,-1,-1
0,3509,1350,-1,-1,-1
0,3510,3110,-1,-1,-1
0,3511,1150,1,-1,-1
0,3512,7870,-1,-1,-1
0,3513,12230,-1,-1,-1
0,3514,5650,-1,-1,-1
0,3515,1950,1,-1,-1
0,3516,4890,-1,-1,-1
0,3517,2200,-1,-1,-1
0,3518,3570,1,-1,-1
0,3519,1640,-1,-1,-1
0,3520,4760,1,-1,-1
0,3521,6760,-1,-1,-1
0,3522,4900,-1,-1,-1
0,3523,16170,-1,-1,-1
0,3524,6860,-1,-1,-1
0,3525,2970,-1,-1,-1
0,3526,11870,-1,-1,-1
0,3527,1010,1,-1,-1
0,3528,1900,-1,-1,-1
0,3529,5250,1,-1,-1
0,3530,2440,-1,-1,-1
0,3531,1280,-1,-1,-1
0,3532,4530,-1,-1,-1
0,3533,1300,1,-1,-1
0,3534,5180,1,-1,-1
0,3535,8290,1,-1,-1
0,3536,8910,-1,-1,-1
0,3537,1650,1,-1,-1
0,3538,3110,1,-1,-1
0,3539,1230,-1,-1,-1
0,3540,5080,1,-1,-1
0,3541,2750,-1,-1,-1
0,3542,2850,-1,-1,-1
0,3543,3100,-1,-1,-1
0,3544,4330,1,-1,-1
0,3545,2030,1,-1,-1
0,3546,2330,1,-1,-1
0,3547,14180,1,-1,-1
0,3548,2890,-1,-1,-1
0,3549,590,1,-1,-1
0,3550,3680,1,-1,-1
0,3551,6410,-1,-1,-1
0,3552,2030,-1,-1,-1
0,3553,3200,1,-1,-1
0,3554,6680,-1,-1,-1
0,3555,2820,1,-1,-1
0,3556,1810,-1,-1,-1
0,3557,2010,1,-1,-1
0,3558,900,1,-1,-1
0,3559,5710,1,-1,-1
0,3560,7100,1,-1,-1
0,3561,2990,1,-1,-1
0,3562,1690,1,-1,-1
0,3563,3490,-1,-1,-1
0,3564,9230,1,-1,-1
0,3565,5110,1,-1,-1
0,3566,2920,-1,-1,-1
0,3567,1250,-1,-1,-1
0,3568,4890,-1,-1,-1
0,3569,1720,-1,-1,-1
0,3570,3550,-1,-1,-1
0,3571,10410,-1,-1,-1
0,3572,6980,1,-1,-1
0,3573,6620,-1,-1,-1
0,3574,1020,-1,-1,-1
0,3575,5740,-1,-1,-1
0,3576,2250,-1,-1,-1
0,3577,2450,1,-1,-1
0,3578,4910,-1,-1,-1
0,3579,3510,-1,-1,-1
0,3580,24440,1,-1,-1
0,3581,4840,1,-1,-1
0,3582,2600,1,-1,-1
0,3583,5600,1,-1,-1
0,3584,8490,-1,-1,-1
0,3585,1930,-1,-1,-1
0,3586,2760,-1,-1,-1
0,3587,2470,1,-1,-1
0,3588,1170,-1,-1,-1
0,3589,2670,1,-1,-1
0,3590,1650,-1,-1,-1
0,3591,3110,1,-1,-1
0,3592,390,1,-1,-1
0,3593,610,-1,-1,-1
0,3594,4250,-1,-1,-1
0,3595,2350,-1,-1,-1
0,3596,2470,1,-1,-1
0,3597,2690,-1,-1,-1
0,3598,2400,-1,-1,-1
0,3599,1320,-1,-1,-1
0,3600,9200,-1,1,0
0,3601,3030,-1,1,0
0,3602,7920,1,1,0
0,3603,580,-1,1,0
0,3604,4280,-1,1,0
0,3605,2460,-1,1,0
0,3606,3150,-1,1,0
0,3607,2240,-1,1,0
0,3608,2950,-1,1,0
0,3609,2730,-1,1,0
0,3610,1420,-1,1,0
0,3611,810,-1,1,0
0,3612,930,-1,1,0
0,3613,1290,-1,1,0
0,3614,2540,-1,1,0
0,3615,7170,1,1,0
0,3616,3240,-1,1,0
0,3617,2270,-1,1,0
0,3618,9130,1,1,0
0,3619,1030,-1,1,0
0,3620,1580,1,1,0
0,3621,3510,1,1,0
0,3622,1580,1,1,0
0,3623,2850,-1,1,0
0,3624,5050,-1,1,0
0,3625,6680,1,1,0
0,3626,6630,1,1,0
0,3627,1940,-1,1,0
0,3628,2540,1,1,0
0,3629,1990,1,1,0
0,3630,1880,-1,1,0
0,3631,1450,-1,1,0
0,3632,3260,1,1,0
0,3633,4890,-1,1,0
0,3634,2360,1,1,0
0,3635,7580,1,1,0
0,3636,2250,1,1,0
0,3637,6790,1,1,0
0,3638,790,1,1,0
0,3639,3510,-1,1,0
0,3640,2710,1,1,0
0,3641,1400,-1,1,0
0,3642,4430,-1,1,0
0,3643,11100,-1,1,0
0,3644,2240,1,1,0
0,3645,6090,1,1,0
0,3646,4260,-1,1,0
0,3647,830,-1,1,0
0,3648,1180,-1,1,0
0,3649,650,-1,1,0
0,3650,5920,1,1,0
0,3651,9570,-1,1,0
0,3652,2020,-1,1,0
0,3653,620,-1,1,0
0,3654,1280,-1,1,0
0,3655,3600,1,1,0
0,3656,1510,-1,1,0
0,3657,9170,-1,1,0
0,3658,11920,-1,1,0
0,3659,5120,1,1,0
0,3660,11860,-1,1,0
0,3661,1570,-1,1,0
0,3662,6180,-1,1,0
0,3663,3830,1,1,0
0,3664,5120,-1,1,0
0,3665,790,-1,1,0
0,3666,8620,-1,1,0
0,3667,1470,1,1,0
0,3668,2270,1,1,0
0,3669,2780,-1,1,0
0,3670,2610,1,1,0
0,3671,5040,1,1,0
0,3672,4200,-1,1,0
0,3673,1680,-1,1,0
0,3674,6890,1,1,0
0,3675,2710,1,1,0
0,3676,5370,-1,1,0
0,3677,4680,1,1,0
0,3678,6900,1,1,0
0,3679,2270,-1,1,0
0,3680,5740,-1,1,0
0,3681,1190,-1,1,0
0,3682,4310,1,1,0
0,3683,3390,-1,1,0
0,3684,2920,1,1,0
0,3685,3230,-1,1,0
0,3686,3010,-1,1,0
0,3687,890,1,1,0
0,3688,1380,1,1,0
0,3689,5820,1,1,0
0,3690,2820,-1,1,0
0,3691,9330,1,1,0
0,3692,3520,1,1,0
0,3693,3430,1,1,0
0,3694,2470,-1,1,0
0,3695,3960,1,1,0
0,3696,2690,-1,1,0
0,3697,2660,-1,1,0
0,3698,1810,-1,1,0
0,3699,1990,-1,1,0
0,3700,8800,1,1,0
0,3701,3560,-1,1,0
0,3702,7610,1,1,0
0,3703,3060,-1,1,0
0,3704,3230,-1,1,0
0,3705,2180,1,1,0
0,3706,940,-1,1,0
0,3707,2990,1,1,0
0,3708,2510,1,1,0
0,3709,4870,1,1,0
0,3710,1760,-1,1,0
0,3711,5860,-1,1,0
0,3712,6890,1,1,0
0,3713,4490,-1,1,0
0,3714,9680,1,1,0
0,3715,3660,-1,1,0
0,3716,9120,-1,1,0
0,3717,5340,1,1,0
0,3718,1610,1,1,0
0,3719,1150,-1,1,0
0,3720,6350,1,1,0
0,3721,3700,-1,1,0
0,3722,11330,-1,1,0
0,3723,1040,1,1,0
0,3724,1440,1,1,0
0,3725,8750,1,1,0
0,3726,2100,-1,1,0
0,3727,950,-1,1,0
0,3728,2590,-1,1,0
0,3729,4720,-1,1,0
0,3730,5210,1,1,0
0,3731,1540,-1,1,0
0,3732,4050,-1,1,0
0,3733,10140,-1,1,0
0,3734,7280,-1,1,0
0,3735,2010,-1,1,0
0,3736,1810,-1,1,0
0,3737,2930,1,1,0
0,3738,1970,1,1,0
0,3739,3230,-1,1,0
0,3740,2480,-1,1,0
0,3741,14470,1,1,0
0,3742,620,-1,1,0
0,3743,2910,-1,1,0
0,3744,5240,-1,1,0
0,3745,13320,1,1,0
0,3746,7630,-1,1,0
0,3747,7470,-1,1,0
0,3748,990,1,1,0
0,3749,4590,-1,1,0
0,3750,2590,-1,1,0
0,3751,1840,-1,1,0
0,3752,10240,-1,1,0
0,3753,2840,-1,1,0
0,3754,720,-1,1,0
0,3755,12770,-1,1,0
0,3756,790,-1,1,0
0,3757,3620,1,1,0
0,3758,750,-1,1,0
0,3759,3390,-1,1,0
0,3760,3800,-1,1,0
0,3761,8560,-1,1,0
0,3762,5010,-1,1,0
0,3763,5580,-1,1,0
0,3764,10180,1,1,0
0,3765,3070,-1,1,0
0,3766,1910,-1,1,0
0,3767,3900,1,1,0
0,3768,5210,-1,1,0
0,3769,1160,-1,1,0
0,3770,3950,-1,1,0
0,3771,8480,1,1,0
0,3772,920,-1,1,0
0,3773,3650,1,1,0
0,3774,4120,-1,1,0
0,3775,4540,-1,1,0
0,3776,2020,-1,1,0
0,3777,1070,1,1,0
0,3778,12610,-1,1,0
0,3779,1360,-1,1,0
0,3780,1550,1,1,0
0,3781,6240,-1,1,0
0,3782,8370,-1,1,0
0,3783,16570,-1,1,0
0,3784,1090,-1,1,0
0,3785,2300,-1,1,0
0,3786,5910,-1,1,0
0,3787,3100,-1,1,0
0,3788,1860,-1,1,0
0,3789,1980,1,1,0
0,3790,7560,-1,1,0
0,3791,610,1,1,0
0,3792,5440,-1,1,0
0,3793,4480,1,1,0
0,3794,4440,-1,1,0
0,3795,2140,-1,1,0
0,3796,9900,1,1,0
0,3797,3020,1,1,0
0,3798,2690,1,1,0
0,3799,5640,1,1,0
0,3800,1200,-1,1,0
0,3801,8580,1,1,0
0,3802,3130,1,1,0
0,3803,1060,-1,1,0
0,3804,3460,-1,1,0
0,3805,940,-1,1,0
0,3806,12880,-1,1,0
0,3807,1800,1,1,0
0,3808,1710,-1,1,0
0,3809,7220,1,1,0
0,3810,1120,-1,1,0
0,3811,2230,1,1,0
0,3812,840,1,1,0
0,3813,7090,-1,1,0
0,3814,1500,-1,1,0
0,3815,4410,-1,1,0
0,3816,3870,-1,1,0
0,3817,4490,1,1,0
0,3818,7470,1,1,0
0,3819,2260,1,1,0
0,3820,2350,1,1,0
0,3821,3190,-1,1,0
0,3822,3670,-1,1,0
0,3823,12900,-1,1,0
0,3824,3130,1,1,0
0,3825,3740,-1,1,0
0,3826,6040,-1,1,0
0,3827,2750,-1,1,0
0,3828,5950,-1,1,0
0,3829,9090,-1,1,0
0,3830,850,1,1,0
0,3831,3730,-1,1,0
0,3832,2250,-1,1,0
0,3833,14830,1,1,0
0,3834,1840,-1,1,0
0,3835,1990,-1,1,0
0,3836,3890,1,1,0
0,3837,3150,-1,1,0
0,3838,1040,-1,1,0
0,3839,8200,1,1,0
0,3840,3520,-1,1,0
0,3841,5510,-1,1,0
0,3842,2050,1,1,0
0,3843,3490,-1,1,0
0,3844,2330,1,1,0
0,3845,1680,1,1,0
0,3846,450,1,1,0
0,3847,11060,-1,1,0
0,3848,2570,1,1,0
0,3849,2320,1,1,0
0,3850,9860,-1,1,0
0,3851,1220,-1,1,0
0,3852,2090,1,1,0
0,3853,3220,-1,1,0
0,3854,390,1,1,0
0,3855,3660,1,1,0
0,3856,810,-1,1,0
0,3857,750,-1,1,0
0,3858,3000,-1,1,0
0,3859,18800,-1,1,0
0,3860,3220,-1,1,0
0,3861,5820,1,1,0
0,3862,1960,-1,1,0
0,3863,4180,1,1,0
0,3864,630,-1,1,0
0,3865,2050,1,1,0
0,3866,7170,1,1,0
0,3867,4890,-1,1,0
0,3868,1670,1,1,0
0,3869,6960,1,1,0
0,3870,3490,-1,1,0
0,3871,2010,-1,1,0
0,3872,7520,-1,1,0
0,3873,9170,-1,1,0
0,3874,2420,-1,1,0
0,3875,1380,-1,1,0
0,3876,4180,1,1,0
0,3877,6210,-1,1,0
0,3878,1830,1,1,0
0,3879,1090,1,1,0
0,3880,1680,-1,1,0
0,3881,930,-1,1,0
0,3882,1350,-1,1,0
0,3883,4890,-1,1,0
0,3884,7730,-1,1,0
0,3885,2420,-1,1,0
0,3886,3330,-1,1,0
0,3887,3130,-1,1,0
0,3888,2470,-1,1,0
0,3889,6830,-1,1,0
0,3890,11310,-1,1,0
0,3891,3190,1,1,0
0,3892,3680,1,1,0
0,3893,3590,-1,1,0
0,3894,1450,1,1,0
0,3895,1400,-1,1,0
0,3896,1810,-1,1,0
0,3897,1400,-1,1,0
0,3898,2110,-1,1,0
0,3899,5360,-1,1,0
0,3900,3300,-1,1,0
0,3901,3260,-1,1,0
0,3902,1040,1,1,0
0,3903,2620,-1,1,0
0,3904,1430,1,1,0
0,3905,1060,-1,1,0
0,3906,660,1,1,0
0,3907,1480,-1,1,0
0,3908,9260,1,1,0
0,3909,3120,-1,1,0
0,3910,2330,1,1,0
0,3911,2920,-1,1,0
0,3912,4530,-1,1,0
0,3913,1850,1,1,0
0,3914,11650,-1,1,0
0,3915,1450,-1,1,0
0,3916,910,1,1,0
0,3917,2770,1,1,0
0,3918,2060,1,1,0
0,3919,1190,-1,1,0
0,3920,4790,1,1,0
0,3921,1950,1,1,0
0,3922,5130,-1,1,0
0,3923,2350,-1,1,0
0,3924,3150,-1,1,0
0,3925,4690,1,1,0
0,3926,3230,-1,1,0
0,3927,3830,1,1,0
0,3928,3190,-1,1,0
0,3929,3150,-1,1,0
0,3930,6730,1,1,0
0,3931,3860,1,1,0
0,3932,7970,1,1,0
0,3933,900,-1,1,0
0,3934,4590,-1,1,0
0,3935,2910,-1,1,0
0,3936,1490,-1,1,0
0,3937,10630,-1,1,0
0,3938,6000,-1,1,0
0,3939,1920,1,1,0
0,3940,3090,1,1,0
0,3941,5270,-1,1,0
0,3942,3350,1,1,0
0,3943,3850,1,1,0
0,3944,7990,-1,1,0
0,3945,28970,-1,1,0
0,3946,4170,-1,1,0
0,3947,8670,-1,1,0
0,3948,1040,-1,1,0
0,3949,2260,-1,1,0
0,3950,4450,-1,1,0
0,3951,1200,-1,1,0
0,3952,8430,-1,1,0
0,3953,6530,-1,1,0
0,3954,1230,-1,1,0
0,3955,1010,1,1,0
0,3956,4410,-1,1,0
0,3957,3570,-1,1,0
0,3958,1490,1,1,0
0,3959,5160,1,1,0
0,3960,2500,-1,1,0
0,3961,4290,1,1,0
0,3962,13740,-1,1,0
0,3963,5080,-1,1,0
0,3964,1090,-1,1,0
0,3965,3500,-1,1,0
0,3966,1590,-1,1,0
0,3967,3140,1,1,0
0,3968,3520,-1,1,0
0,3969,4430,1,1,0
0,3970,1080,-1,1,0
0,3971,4110,1,1,0
0,3972,890,1,1,0
0,3973,1530,-1,1,0
0,3974,4120,-1,1,0
0,3975,1970,-1,1,0
0,3976,1180,1,1,0
0,3977,2270,-1,1,0
0,3978,1710,-1,1,0
0,3979,790,-1,1,0
0,3980,980,-1,1,0
0,3981,4670,1,1,0
0,3982,7420,1,1,0
0,3983,980,-1,1,0
0,3984,4330,1,1,0
0,3985,3650,-1,1,0
0,3986,760,-1,1,0
0,3987,980,1,1,0
0,3988,1930,-1,1,0
0,3989,3540,-1,1,0
0,3990,3950,-1,1,0
0,3991,7620,1,1,0
0,3992,1260,-1,1,0
0,3993,8470,1,1,0
0,3994,7080,-1,1,0
0,3995,610,-1,1,0
0,3996,1000,-1,1,0
0,3997,2780,1,1,0
0,3998,1660,-1,1,0
0,3999,2740,-1,1,0
0,4000,1320,1,-1,-1
0,4001,5680,1,-1,-1
0,4002,1780,-1,-1,-1
0,4003,4420,1,-1,-1
0,4004,3590,1,-1,-1
0,4005,6390,-1,-1,-1
0,4006,4890,1,-1,-1
0,4007,3430,-1,-1,-1
0,4008,790,1,-1,-1
0,4009,4070,1,-1,-1
0,4010,4130,1,-1,-1
0,4011,1200,1,-1,-1
0,4012,1260,1,-1,-1
0,4013,1220,-1,-1,-1
0,4014,7200,1,-1,-1
0,4015,8080,1,-1,-1
0,4016,1530,1,-1,-1
0,4017,960,1,-1,-1
0,4018,1210,1,-1,-1
0,4019,2050,1,-1,-1
0,4020,14610,1,-1,-1
0,4021,13600,-1,-1,-1
0,4022,1110,-1,-1,-1
0,4023,1520,1,-1,-1
0,4024,4240,-1,-1,-1
0,4025,6830,1,-1,-1
0,4026,1990,1,-1,-1
0,4027,3290,-1,-1,-1
0,4028,11470,1,-1,-1
0,4029,3200,1,-1,-1
0,4030,3280,1,-1,-1
0,4031,2480,-1,-1,-1
0,4032,1800,1,-1,-1
0,4033,1120,-1,-1,-1
0,4034,540,-1,-1,-1
0,4035,4650,1,-1,-1
0,4036,1520,1,-1,-1
0,4037,2370,-1,-1,-1
0,4038,6870,1,-1,-1
0,4039,2210,1,-1,-1
0,4040,3120,-1,-1,-1
0,4041,5190,-1,-1,-1
0,4042,2070,-1,-1,-1
0,4043,1770,-1,-1,-1
0,4044,5740,-1,-1,-1
0,4045,5680,1,-1,-1
0,4046,1470,1,-1,-1
0,4047,6560,1,-1,-1
0,4048,7570,1,-1,-1
0,4049,4890,1,-1,-1
0,4050,3960,1,-1,-1
0,4051,2210,1,-1,-1
0,4052,990,1,-1,-1
0,4053,6360,1,-1,-1
0,4054,1680,1,-1,-1
0,4055,5790,-1,-1,-1
0,4056,3970,-1,-1,-1
0,4057,640,1,-1,-1
0,4058,4570,-1,-1,-1
0,4059,6320,1,-1,-1
0,4060,2630,-1,-1,-1
0,4061,1620,1,-1,-1
0,4062,7750,-1,-1,-1
0,4063,13100,1,-1,-1
0,4064,1360,1,-1,-1
0,4065,5020,1,-1,-1
0,4066,650,-1,-1,-1
0,4067,7230,-1,-1,-1
0,4068,19370,-1,-1,-1
0,4069,1470,1,-1,-1
0,4070,5190,-1,-1,-1
0,4071,580,-1,-1,-1
0,4072,2210,-1,-1,-1
0,4073,3220,1,-1,-1
0,4074,3540,1,-1,-1
0,4075,3220,-1,-1,-1
0,4076,2110,-1,-1,-1
0,4077,1740,-1,-1,-1
0,4078,4420,1,-1,-1
0,4079,5580,-1,-1,-1
0,4080,6880,1,-1,-1
0,4081,4430,1,-1,-1
0,4082,7030,1,-1,-1
0,4083,4500,-1,-1,-1
0,4084,2000,1,-1,-1
0,4085,1890,1,-1,-1
0,4086,1060,1,-1,-1
0,4087,5580,1,-1,-1
0,4088,2790,-1,-1,-1
0,4089,4230,-1,-1,-1
0,4090,4210,-1,-1,-1
0,4091,4370,-1,-1,-1
0,4092,2110,1,-1,-1
0,4093,800,1,-1,-1
0,4094,2090,1,-1,-1
0,4095,2380,-1,-1,-1
0,4096,910,1,-1,-1
0,4097,4460,-1,-1,-1
0,4098,1580,-1,-1,-1
0,4099,12770,-1,-1,-1
0,4100,7320,1,-1,-1
0,4101,8090,-1,-1,-1
0,4102,2160,1,-1,-1
0,4103,5820,-1,-1,-1
0,4104,6310,1,-1,-1
0,4105,8230,1,-1,-1
0,4106,4050,1,-1,-1
0,4107,2910,-1,-1,-1
0,4108,1960,1,-1,-1
0,4109,3210,-1,-1,-1
0,4110,2070,-1,-1,-1
0,4111,1170,-1,-1,-1
0,4112,13550,-1,-1,-1
0,4113,1090,1,-1,-1
0,4114,3230,1,-1,-1
0,4115,1920,1,-1,-1
0,4116,4350,1,-1,-1
0,4117,2420,-1,-1,-1
0,4118,990,-1,-1,-1
0,4119,1320,-1,-1,-1
0,4120,6280,1,-1,-1
0,4121,1470,1,-1,-1
0,4122,470,1,-1,-1
0,4123,2070,-1,-1,-1
0,4124,5730,1,-1,-1
0,4125,1250,1,-1,-1
0,4126,4940,1,-1,-1
0,4127,850,1,-1,-1
0,4128,1000,-1,-1,-1
0,4129,3250,1,-1,-1
0,4130,4620,-1,-1,-1
0,4131,5070,1,-1,-1
0,4132,6690,1,-1,-1
0,4133,4690,-1,-1,-1
0,4134,5250,1,-1,-1
0,4135,2310,-1,-1,-1
0,4136,2010,1,-1,-1
0,4137,9720,1,-1,-1
0,4138,880,-1,-1,-1
0,4139,11870,-1,-1,-1
0,4140,2980,1,-1,-1
0,4141,3460,-1,-1,-1
0,4142,1270,-1,-1,-1
0,4143,1090,1,-1,-1
0,4144,12930,-1,-1,-1
0,4145,3030,-1,-1,-1
0,4146,2980,1,-1,-1
0,4147,1650,1,-1,-1
0,4148,9930,-1,-1,-1
0,4149,3100,1,-1,-1
0,4150,2690,-1,-1,-1
0,4151,2440,1,-1,-1
0,4152,1660,-1,-1,-1
0,4153,3910,1,-1,-1
0,4154,1360,-1,-1,-1
0,4155,5010,-1,-1,-1
0,4156,2720,1,-1,-1
0,4157,1760,1,-1,-1
0,4158,2330,1,-1,-1
0,4159,680,1,-1,-1
0,4160,2010,1,-1,-1
0,4161,9850,-1,-1,-1
0,4162,1020,1,-1,-1
0,4163,3140,-1,-1,-1
0,4164,2560,1,-1,-1
0,4165,4040,1,-1,-1
0,4166,5340,1,-1,-1
0,4167,4260,1,-1,-1
0,4168,2350,1,-1,-1
0,4169,8200,1,-1,-1
0,4170,1590,1,-1,-1
0,4171,2720,-1,-1,-1
0,4172,1310,-1,-1,-1
0,4173,2640,-1,-1,-1
0,4174,2330,-1,-1,-1
0,4175,6530,1,-1,-1
0,4176,2990,-1,-1,-1
0,4177,6570,1,-1,-1
0,4178,3430,-1,-1,-1
0,4179,5270,-1,-1,-1
0,4180,7220,-1,-1,-1
0,4181,1250,1,-1,-1
0,4182,12580,1,-1,-1
0,4183,830,1,-1,-1
0,4184,2270,-1,-1,-1
0,4185,5030,1,-1,-1
0,4186,2230,1,-1,-1
0,4187,2560,1,-1,-1
0,4188,7000,1,-1,-1
0,4189,2340,1,-1,-1
0,4190,1780,-1,-1,-1
0,4191,1100,1,-1,-1
0,4192,4260,-1,-1,-1
0,4193,3950,-1,-1,-1
0,4194,5280,1,-1,-1
0,4195,1300,-1,-1,-1
0,4196,3210,-1,-1,-1
0,4197,2760,-1,-1,-1
0,4198,10230,1,-1,-1
0,4199,7530,1,-1,-1
0,4200,1900,1,-1,-1
0,4201,6480,1,-1,-1
0,4202,2360,-1,-1,-1
0,4203,4530,1,-1,-1
0,4204,7000,-1,-1,-1
0,4205,920,1,-1,-1
0,4206,2100,1,-1,-1
0,4207,14000,-1,-1,-1
0,4208,7310,-1,-1,-1
0,4209,2510,1,-1,-1
0,4210,5720,-1,-1,-1
0,4211,1650,1,-1,-1
0,4212,5300,1,-1,-1
0,4213,1640,1,-1,-1
0,4214,2770,1,-1,-1
0,4215,6410,-1,-1,-1
0,4216,1180,-1,-1,-1
0,4217,1500,-1,-1,-1
0,4218,3410,1,-1,-1
0,4219,1980,-1,-1,-1
0,4220,3760,-1,-1,-1
0,4221,3150,1,-1,-1
0,4222,2940,1,-1,-1
0,4223,5670,-1,-1,-1
0,4224,1490,1,-1,-1
0,4225,7920,1,-1,-1
0,4226,1570,-1,-1,-1
0,4227,6870,1,-1,-1
0,4228,620,-1,-1,-1
0,4229,5080,1,-1,-1
0,4230,4810,1,-1,-1
0,4231,2310,1,-1,-1
0,4232,3910,1,-1,-1
0,4233,850,1,-1,-1
0,4234,3570,-1,-1,-1
0,4235,2450,-1,-1,-1
0,4236,1270,1,-1,-1
0,4237,3640,-1,-1,-1
0,4238,6040,-1,-1,-1
0,4239,770,1,-1,-1
0,4240,710,1,-1,-1
0,4241,2000,1,-1,-1
0,4242,8370,-1,-1,-1
0,4243,3320,-1,-1,-1
0,4244,5750,-1,-1,-1
0,4245,2090,-1,-1,-1
0,4246,6480,-1,-1,-1
0,4247,1120,1,-1,-1
0,4248,5510,1,-1,-1
0,4249,1490,1,-1,-1
0,4250,2500,1,-1,-1
0,4251,3120,1,-1,-1
0,4252,5490,-1,-1,-1
0,4253,820,1,-1,-1
0,4254,3240,1,-1,-1
0,4255,7850,1,-1,-1
0,4256,9450,1,-1,-1
0,4257,520,1,-1,-1
0,4258,1910,-1,-1,-1
0,4259,4960,1,-1,-1
0,4260,14260,1,-1,-1
0,4261,1420,-1,-1,-1
0,4262,24770,-1,-1,-1
0,4263,2980,1,-1,-1
0,4264,3760,-1,-1,-1
0,4265,1180,1,-1,-1
0,4266,6500,-1,-1,-1
0,4267,8170,-1,-1,-1
0,4268,750,1,-1,-1
0,4269,940,1,-1,-1
0,4270,17950,-1,-1,-1
0,4271,4900,1,-1,-1
0,4272,1320,-1,-1,-1
0,4273,7410,1,-1,-1
0,4274,2790,-1,-1,-1
0,4275,18320,1,-1,-1
0,4276,9590,1,-1,-1
0,4277,1180,1,-1,-1
0,4278,650,1,-1,-1
0,4279,3150,1,-1,-1
0,4280,1950,-1,-1,-1
0,4281,2800,1,-1,-1
0,4282,4910,-1,-1,-1
0,4283,1570,-1,-1,-1
0,4284,8480,-1,-1,-1
0,4285,1400,-1,-1,-1
0,4286,1800,-1,-1,-1
0,4287,2040,1,-1,-1
0,4288,2860,1,-1,-1
0,4289,1260,1,-1,-1
0,4290,2080,-1,-1,-1
0,4291,2850,1,-1,-1
0,4292,4320,-1,-1,-1
0,4293,3470,1,-1,-1
0,4294,470,1,-1,-1
0,4295,4370,-1,-1,-1
0,4296,1160,-1,-1,-1
0,4297,3500,-1,-1,-1
0,4298,6560,-1,-1,-1
0,4299,1160,1,-1,-1
0,4300,1830,-1,-1,-1
0,4301,1390,-1,-1,-1
0,4302,2450,1,-1,-1
0,4303,7740,1,-1,-1
0,4304,4520,-1,-1,-1
0,4305,950,1,-1,-1
0,4306,5720,1,-1,-1
0,4307,1030,1,-1,-1
0,4308,830,1,-1,-1
0,4309,4440,-1,-1,-1
0,4310,9060,-1,-1,-1
0,4311,1350,1,-1,-1
0,4312,2260,-1,-1,-1
0,4313,4250,-1,-1,-1
0,4314,860,1,-1,-1
0,4315,1360,-1,-1,-1
0,4316,7950,-1,-1,-1
0,4317,5340,-1,-1,-1
0,4318,6460,-1,-1,-1
0,4319,4040,-1,-1,-1
0,4320,790,1,-1,-1
0,4321,17270,1,-1,-1
0,4322,8640,-1,-1,-1
0,4323,3570,-1,-1,-1
0,4324,5740,1,-1,-1
0,4325,2110,1,-1,-1
0,4326,8840,1,-1,-1
0,4327,2610,1,-1,-1
0,4328,2280,-1,-1,-1
0,4329,1950,1,-1,-1
0,4330,1050,-1,-1,-1
0,4331,3000,1,-1,-1
0,4332,3940,-1,-1,-1
0,4333,1310,1,-1,-1
0,4334,6970,-1,-1,-1
0,4335,2450,1,-1,-1
0,4336,1690,-1,-1,-1
0,4337,8000,-1,-1,-1
0,4338,6310,1,-1,-1
0,4339,4750,-1,-1,-1
0,4340,8610,-1,-1,-1
0,4341,770,-1,-1,-1
0,4342,1060,-1,-1,-1
0,4343,990,-1,-1,-1
0,4344,3190,1,-1,-1
0,4345,850,-1,-1,-1
0,4346,2750,1,-1,-1
0,4347,5220,-1,-1,-1
0,4348,1970,1,-1,-1
0,4349,690,-1,-1,-1
0,4350,3890,1,-1,-1
0,4351,2620,1,-1,-1
0,4352,8880,-1,-1,-1
0,4353,7000,1,-1,-1
0,4354,2610,1,-1,-1
0,4355,4400,1,-1,-1
0,4356,11900,-1,-1,-1
0,4357,1980,-1,-1,-1
0,4358,3650,1,-1,-1
0,4359,3820,-1,-1,-1
0,4360,1360,1,-1,-1
0,4361,11940,-1,-1,-1
0,4362,2380,1,-1,-1
0,4363,1680,-1,-1,-1
0,4364,2800,1,-1,-1
0,4365,3660,1,-1,-1
0,4366,5460,1,-1,-1
0,4367,860,-1,-1,-1
0,4368,1850,1,-1,-1
0,4369,1680,1,-1,-1
0,4370,740,1,-1,-1
0,4371,1300,-1,-1,-1
0,4372,3480,1,-1,-1
0,4373,1370,1,-1,-1
0,4374,1940,1,-1,-1
0,4375,9660,-1,-1,-1
0,4376,2010,-1,-1,-1
0,4377,1020,-1,-1,-1
0,4378,3150,1,-1,-1
0,4379,2900,1,-1,-1
0,4380,12950,-1,-1,-1
0,4381,7810,1,-1,-1
0,4382,830,1,-1,-1
0,4383,4510,-1,-1,-1
0,4384,1860,-1,-1,-1
0,4385,1340,-1,-1,-1
0,4386,1320,1,-1,-1
0,4387,2270,-1,-1,-1
0,4388,13950,-1,-1,-1
0,4389,3450,-1,-1,-1
0,4390,4960,-1,-1,-1
0,4391,3930,1,-1,-1
0,4392,1750,1,-1,-1
0,4393,1490,-1,-1,-1
0,4394,10610,1,-1,-1
0,4395,3940,1,-1,-1
0,4396,8180,-1,-1,-1
0,4397,2050,1,-1,-1
0,4398,6070,1,-1,-1
0,4399,2560,1,-1,-1
0,4400,2810,1,0,0
0,4401,1700,-1,0,0
0,4402,2020,-1,0,0
0,4403,4800,1,0,0
0,4404,1960,1,0,0
0,4405,5940,1,0,0
0,4406,13090,1,0,0
0,4407,8570,-1,0,0
0,4408,2830,-1,0,0
0,4409,2580,-1,0,0
0,4410,6670,1,0,0
0,4411,5040,-1,0,0
0,4412,6020,-1,0,0
0,4413,2210,1,0,0
0,4414,1850,-1,0,0
0,4415,11140,-1,0,0
0,4416,4720,-1,0,0
0,4417,12230,-1,0,0
0,4418,7120,1,0,0
0,4419,9690,-1,0,0
0,4420,580,1,0,0
0,4421,3780,-1,0,0
0,4422,8780,-1,0,0
0,4423,820,-1,0,0
0,4424,1970,1,0,0
0,4425,18400,1,0,0
0,4426,2640,1,0,0
0,4427,17310,1,0,0
0,4428,7340,-1,0,0
0,4429,7620,-1,0,0
0,4430,3360,-1,0,0
0,4431,3980,-1,0,0
0,4432,5040,1,0,0
0,4433,1390,1,0,0
0,4434,3830,-1,0,0
0,4435,850,1,0,0
0,4436,7870,-1,0,0
0,4437,10300,1,0,0
0,4438,2270,1,0,0
0,4439,2110,-1,0,0
0,4440,5400,1,0,0
0,4441,2820,-1,0,0
0,4442,3370,-1,0,0
0,4443,1140,-1,0,0
0,4444,3430,-1,0,0
0,4445,4910,1,0,0
0,4446,3570,1,0,0
0,4447,1390,1,0,0
0,4448,520,1,0,0
0,4449,2960,1,0,0
0,4450,11580,-1,0,0
0,4451,2300,-1,0,0
0,4452,1360,-1,0,0
0,4453,1880,-1,0,0
0,4454,7990,1,0,0
0,4455,2980,1,0,0
0,4456,3430,-1,0,0
0,4457,2060,1,0,0
0,4458,1670,-1,0,0
0,4459,1960,-1,0,0
0,4460,17660,-1,0,0
0,4461,2310,1,0,0
0,4462,2940,1,0,0
0,4463,3260,-1,0,0
0,4464,1730,1,0,0
0,4465,970,1,0,0
0,4466,3610,1,0,0
0,4467,2340,-1,0,0
0,4468,1570,1,0,0
0,4469,12440,-1,0,0
0,4470,1310,1,0,0
0,4471,3690,1,0,0
0,4472,7000,-1,0,0
0,4473,2320,-1,0,0
0,4474,6100,1,0,0
0,4475,1850,1,0,0
0,4476,7070,1,0,0
0,4477,2550,1,0,0
0,4478,2120,1,0,0
0,4479,2350,-1,0,0
0,4480,6910,1,0,0
0,4481,7710,1,0,0
0,4482,4630,1,0,0
0,4483,1710,1,0,0
0,4484,4420,-1,0,0
0,4485,2890,1,0,0
0,4486,12990,1,0,0
0,4487,3810,-1,0,0
0,4488,5110,-1,0,0
0,4489,5290,1,0,0
0,4490,1830,-1,0,0
0,4491,2250,1,0,0
0,4492,5540,-1,0,0
0,4493,1250,-1,0,0
0,4494,1670,-1,0,0
0,4495,3530,1,0,0
0,4496,2230,-1,0,0
0,4497,2570,-1,0,0
0,4498,4920,1,0,0
0,4499,16220,1,0,0
0,4500,4100,-1,0,0
0,4501,8080,1,0,0
0,4502,8670,1,0,0
0,4503,4330,-1,0,0
0,4504,2090,-1,0,0
0,4505,2460,-1,0,0
0,4506,880,1,0,0
0,4507,980,-1,0,0
0,4508,6030,1,0,0
0,4509,2820,-1,0,0
0,4510,5330,-1,0,0
0,4511,2510,1,0,0
0,4512,5910,1,0,0
0,4513,510,1,0,0
0,4514,2500,1,0,0
0,4515,4060,1,0,0
0,4516,720,1,0,0
0,4517,770,-1,0,0
0,4518,2960,-1,0,0
0,4519,3840,1,0,0
0,4520,9770,-1,0,0
0,4521,4240,1,0,0
0,4522,1270,1,0,0
0,4523,6320,1,0,0
0,4524,720,1,0,0
0,4525,2420,-1,0,0
0,4526,3480,-1,0,0
0,4527,2220,1,0,0
0,4528,4660,-1,0,0
0,4529,2200,-1,0,0
0,4530,1740,-1,0,0
0,4531,3880,-1,0,0
0,4532,1460,1,0,0
0,4533,6770,1,0,0
0,4534,810,-1,0,0
0,4535,1550,1,0,0
0,4536,1510,1,0,0
0,4537,1090,-1,0,0
0,4538,2220,1,0,0
0,4539,12270,-1,0,0
0,4540,20370,1,0,0
0,4541,2980,1,0,0
0,4542,3820,-1,0,0
0,4543,1600,-1,0,0
0,4544,2380,1,0,0
0,4545,3370,1,0,0
0,4546,380,-1,0,0
0,4547,2070,1,0,0
0,4548,1970,-1,0,0
0,4549,2130,-1,0,0
0,4550,2060,-1,0,0
0,4551,6070,-1,0,0
0,4552,1770,1,0,0
0,4553,2300,1,0,0
0,4554,1250,1,0,0
0,4555,1740,-1,0,0
0,4556,9260,1,0,0
0,4557,5920,1,0,0
0,4558,4350,1,0,0
0,4559,3290,1,0,0
0,4560,1310,1,0,0
0,4561,12460,1,0,0
0,4562,5910,1,0,0
0,4563,4000,1,0,0
0,4564,11160,1,0,0
0,4565,4530,1,0,0
0,4566,2130,1,0,0
0,4567,9230,-1,0,0
0,4568,900,-1,0,0
0,4569,9770,1,0,0
0,4570,5120,-1,0,0
0,4571,12230,-1,0,0
0,4572,1440,-1,0,0
0,4573,6150,-1,0,0
0,4574,2040,-1,0,0
0,4575,4170,-1,0,0
0,4576,1620,-1,0,0
0,4577,900,-1,0,0
0,4578,4050,-1,0,0
0,4579,3450,1,0,0
0,4580,6540,1,0,0
0,4581,6520,1,0,0
0,4582,11530,1,0,0
0,4583,2230,-1,0,0
0,4584,6520,-1,0,0
0,4585,1740,-1,0,0
0,4586,3700,-1,0,0
0,4587,4660,1,0,0
0,4588,1960,-1,0,0
0,4589,4890,1,0,0
0,4590,1190,-1,0,0
0,4591,4800,1,0,0
0,4592,2590,1,0,0
0,4593,2240,-1,0,0
0,4594,7220,1,0,0
0,4595,10500,-1,0,0
0,4596,1140,1,0,0
0,4597,1700,-1,0,0
0,4598,7170,1,0,0
0,4599,5770,1,0,0
0,4600,1520,-1,0,0
0,4601,3780,1,0,0
0,4602,2030,1,0,0
0,4603,380,-1,0,0
0,4604,10010,1,0,0
0,4605,2260,-1,0,0
0,4606,3500,1,0,0
0,4607,4650,-1,0,0
0,4608,1040,1,0,0
0,4609,3690,1,0,0
0,4610,950,-1,0,0
0,4611,10990,1,0,0
0,4612,4370,1,0,0
0,4613,2110,1,0,0
0,4614,1260,-1,0,0
0,4615,3650,1,0,0
0,4616,1530,1,0,0
0,4617,2510,-1,0,0
0,4618,2920,-1,0,0
0,4619,6100,1,0,0
0,4620,8160,1,0,0
0,4621,3170,-1,0,0
0,4622,9620,-1,0,0
0,4623,8190,-1,0,0
0,4624,3760,-1,0,0
0,4625,7700,-1,0,0
0,4626,2160,1,0,0
0,4627,7370,1,0,0
0,4628,2360,-1,0,0
0,4629,1880,1,0,0
0,4630,3020,1,0,0
0,4631,2950,-1,0,0
0,4632,2430,1,0,0
0,4633,3500,-1,0,0
0,4634,4150,-1,0,0
0,4635,6520,1,0,0
0,4636,5120,1,0,0
0,4637,2600,1,0,0
0,4638,6380,1,0,0
0,4639,9280,1,0,0
0,4640,1700,1,0,0
0,4641,3400,-1,0,0
0,4642,6620,-1,0,0
0,4643,760,-1,0,0
0,4644,6960,1,0,0
0,4645,1410,1,0,0
0,4646,410,1,0,0
0,4647,18450,-1,0,0
0,4648,2120,1,0,0
0,4649,4280,-1,0,0
0,4650,9440,1,0,0
0,4651,8000,-1,0,0
0,4652,8410,1,0,0
0,4653,7820,-1,0,0
0,4654,1560,-1,0,0
0,4655,3620,-1,0,0
0,4656,2230,1,0,0
0,4657,1730,1,0,0
0,4658,8950,-1,0,0
0,4659,3300,-1,0,0
0,4660,1760,1,0,0
0,4661,750,-1,0,0
0,4662,3090,-1,0,0
0,4663,3640,1,0,0
0,4664,900,1,0,0
0,4665,10390,1,0,0
0,4666,930,1,0,0
0,4667,9590,-1,0,0
0,4668,6410,-1,0,0
0,4669,1530,-1,0,0
0,4670,1950,-1,0,0
0,4671,4290,1,0,0
0,4672,1060,1,0,0
0,4673,4680,1,0,0
0,4674,980,-1,0,0
0,4675,7390,1,0,0
0,4676,4550,-1,0,0
0,4677,1600,-1,0,0
0,4678,1650,-1,0,0
0,4679,3670,1,0,0
0,4680,4180,1,0,0
0,4681,5810,1,0,0
0,4682,4530,1,0,0
0,4683,800,-1,0,0
0,4684,1030,-1,0,0
0,4685,4970,-1,0,0
0,4686,6570,-1,0,0
0,4687,7720,1,0,0
0,4688,5390,1,0,0
0,4689,4110,1,0,0
0,4690,2470,-1,0,0
0,4691,1060,-1,0,0
0,4692,2220,1,0,0
0,4693,630,1,0,0
0,4694,1530,1,0,0
0,4695,1490,-1,0,0
0,4696,2450,-1,0,0
0,4697,4170,-1,0,0
0,4698,5530,-1,0,0
0,4699,710,1,0,0
0,4700,1740,1,0,0
0,4701,1330,1,0,0
0,4702,1640,1,0,0
0,4703,1590,1,0,0
0,4704,18770,1,0,0
0,4705,20510,-1,0,0
0,4706,4200,1,0,0
0,4707,3120,-1,0,0
0,4708,1040,1,0,0
0,4709,7410,1,0,0
0,4710,3800,1,0,0
0,4711,1970,-1,0,0
0,4712,3430,-1,0,0
0,4713,2570,-1,0,0
0,4714,1800,1,0,0
0,4715,2800,1,0,0
0,4716,2760,-1,0,0
0,4717,1770,1,0,0
0,4718,5620,1,0,0
0,4719,2480,1,0,0
0,4720,1080,1,0,0
0,4721,4800,1,0,0
0,4722,2710,-1,0,0
0,4723,2640,1,0,0
0,4724,3330,1,0,0
0,4725,5440,-1,0,0
0,4726,1250,1,0,0
0,4727,1490,-1,0,0
0,4728,1560,-1,0,0
0,4729,4410,1,0,0
0,4730,2610,-1,0,0
0,4731,780,-1,0,0
0,4732,1630,-1,0,0
0,4733,1670,1,0,0
0,4734,6070,-1,0,0
0,4735,8010,1,0,0
0,4736,1120,-1,0,0
0,4737,10600,1,0,0
0,4738,1500,1,0,0
0,4739,1920,-1,0,0
0,4740,2020,-1,0,0
0,4741,670,-1,0,0
0,4742,4890,1,0,0
0,4743,14060,1,0,0
0,4744,3570,-1,0,0
0,4745,4300,-1,0,0
0,4746,4640,1,0,0
0,4747,4180,-1,0,0
0,4748,10330,-1,0,0
0,4749,4360,1,0,0
0,4750,1560,1,0,0
0,4751,5640,1,0,0
0,4752,890,1,0,0
0,4753,1900,-1,0,0
0,4754,2420,-1,0,0
0,4755,1490,1,0,0
0,4756,3220,1,0,0
0,4757,4070,-1,0,0
0,4758,1470,-1,0,0
0,4759,1150,-1,0,0
0,4760,520,1,0,0
0,4761,10340,1,0,0
0,4762,4270,1,0,0
0,4763,6090,1,0,0
0,4764,3010,1,0,0
0,4765,2670,-1,0,0
0,4766,6320,1,0,0
0,4767,4200,-1,0,0
0,4768,4810,-1,0,0
0,4769,2730,-1,0,0
0,4770,5580,-1,0,0
0,4771,3290,1,0,0
0,4772,860,1,0,0
0,4773,2070,-1,0,0
0,4774,1250,1,0,0
0,4775,3410,-1,0,0
0,4776,2410,1,0,0
0,4777,3580,1,0,0
0,4778,1310,-1,0,0
0,4779,2090,1,0,0
0,4780,1240,-1,0,0
0,4781,2730,1,0,0
0,4782,2510,-1,0,0
0,4783,2860,-1,0,0
0,4784,3150,1,0,0
0,4785,7010,-1,0,0
0,4786,1990,1,0,0
0,4787,3450,1,0,0
0,4788,8990,1,0,0
0,4789,2080,-1,0,0
0,4790,2440,-1,0,0
0,4791,6780,1,0,0
0,4792,470,-1,0,0
0,4793,4470,1,0,0
0,4794,2000,-1,0,0
0,4795,1310,-1,0,0
0,4796,950,-1,0,0
0,4797,3440,-1,0,0
0,4798,840,-1,0,0
0,4799,1830,-1,0,0
0,4800,3490,1,-1,0
0,4801,980,-1,-1,0
0,4802,1420,1,-1,0
0,4803,2590,-1,-1,0
0,4804,15730,-1,-1,0
0,4805,2110,-1,-1,0
0,4806,5960,-1,-1,0
0,4807,6680,1,-1,0
0,4808,5430,1,-1,0
0,4809,4010,1,-1,0
0,4810,2380,1,-1,0
0,4811,1570,1,-1,0
0,4812,6310,1,-1,0
0,4813,4800,-1,-1,0
0,4814,3100,-1,-1,0
0,4815,3950,-1,-1,0
0,4816,2100,-1,-1,0
0,4817,4970,1,-1,0
0,4818,3530,-1,-1,0
0,4819,2190,1,-1,0
0,4820,4950,1,-1,0
0,4821,6310,1,-1,0
0,4822,6650,1,-1,0
0,4823,5690,1,-1,0
0,4824,4240,-1,-1,0
0,4825,1940,-1,-1,0
0,4826,4480,1,-1,0
0,4827,6200,-1,-1,0
0,4828,660,-1,-1,0
0,4829,6090,-1,-1,0
0,4830,3410,-1,-1,0
0,4831,6250,1,-1,0
0,4832,2170,1,-1,0
0,4833,650,1,-1,0
0,4834,790,-1,-1,0
0,4835,3580,-1,-1,0
0,4836,740,1,-1,0
0,4837,1440,1,-1,0
0,4838,2370,-1,-1,0
0,4839,4810,1,-1,0
0,4840,3960,1,-1,0
0,4841,10200,1,-1,0
0,4842,4880,1,-1,0
0,4843,6450,1,-1,0
0,4844,2530,1,-1,0
0,4845,1880,-1,-1,0
0,4846,980,1,-1,0
0,4847,10020,1,-1,0
0,4848,7190,-1,-1,0
0,4849,4380,-1,-1,0
0,4850,6860,-1,-1,0
0,4851,7830,1,-1,0
0,4852,5650,1,-1,0
0,4853,2800,-1,-1,0
0,4854,8370,-1,-1,0
0,4855,1880,-1,-1,0
0,4856,14040,1,-1,0
0,4857,3050,1,-1,0
0,4858,770,-1,-1,0
0,4859,3230,-1,-1,0
0,4860,2350,1,-1,0
0,4861,2370,1,-1,0
0,4862,4850,1,-1,0
0,4863,2310,1,-1,0
0,4864,1830,-1,-1,0
0,4865,1340,1,-1,0
0,4866,1060,1,-1,0
0,4867,3580,1,-1,0
0,4868,1690,1,-1,0
0,4869,2750,1,-1,0
0,4870,2740,-1,-1,0
0,4871,3220,1,-1,0
0,4872,3000,-1,-1,0
0,4873,4710,1,-1,0
0,4874,8200,-1,-1,0
0,4875,2820,-1,-1,0
0,4876,5030,1,-1,0
0,4877,2050,-1,-1,0
0,4878,2160,1,-1,0
0,4879,520,1,-1,0
0,4880,3790,1,-1,0
0,4881,6350,1,-1,0
0,4882,5910,1,-1,0
0,4883,4910,-1,-1,0
0,4884,8350,1,-1,0
0,4885,1030,1,-1,0
0,4886,1040,-1,-1,0
0,4887,1870,-1,-1,0
0,4888,580,-1,-1,0
0,4889,15430,-1,-1,0
0,4890,1020,-1,-1,0
0,4891,1600,-1,-1,0
0,4892,6090,1,-1,0
0,4893,1180,-1,-1,0
0,4894,5770,1,-1,0
0,4895,380,1,-1,0
0,4896,3420,-1,-1,0
0,4897,1590,-1,-1,0
0,4898,1150,1,-1,0
0,4899,1350,-1,-1,0
0,4900,15970,1,-1,0
0,4901,12130,1,-1,0
0,4902,1830,-1,-1,0
0,4903,10540,-1,-1,0
0,4904,4480,1,-1,0
0,4905,3990,1,-1,0
0,4906,3440,1,-1,0
0,4907,1810,1,-1,0
0,4908,1030,-1,-1,0
0,4909,4590,-1,-1,0
0,4910,4240,1,-1,0
0,4911,7890,-1,-1,0
0,4912,4990,1,-1,0
0,4913,1500,-1,-1,0
0,4914,3810,1,-1,0
0,4915,3330,1,-1,0
0,4916,2170,1,-1,0
0,4917,2220,1,-1,0
0,4918,960,-1,-1,0
0,4919,6130,-1,-1,0
0,4920,720,1,-1,0
0,4921,5470,1,-1,0
0,4922,1090,1,-1,0
0,4923,23110,-1,-1,0
0,4924,1800,-1,-1,0
0,4925,940,1,-1,0
0,4926,6980,1,-1,0
0,4927,3360,-1,-1,0
0,4928,600,-1,-1,0
0,4929,6100,1,-1,0
0,4930,5170,1,-1,0
0,4931,4830,-1,-1,0
0,4932,3810,1,-1,0
0,4933,1330,-1,-1,0
0,4934,990,-1,-1,0
0,4935,1420,1,-1,0
0,4936,7900,1,-1,0
0,4937,1280,-1,-1,0
0,4938,3580,1,-1,0
0,4939,520,1,-1,0
0,4940,1860,1,-1,0
0,4941,5110,1,-1,0
0,4942,2830,1,-1,0
0,4943,1640,1,-1,0
0,4944,2360,1,-1,0
0,4945,7560,1,-1,0
0,4946,21430,1,-1,0
0,4947,6160,-1,-1,0
0,4948,2770,-1,-1,0
0,4949,950,1,-1,0
0,4950,2860,1,-1,0
0,4951,2870,1,-1,0
0,4952,3740,1,-1,0
0,4953,3770,-1,-1,0
0,4954,14500,1,-1,0
0,4955,1740,1,-1,0
0,4956,13270,-1,-1,0
0,4957,16220,1,-1,0
0,4958,2280,1,-1,0
0,4959,1450,1,-1,0
0,4960,5210,1,-1,0
0,4961,5600,1,-1,0
0,4962,870,1,-1,0
0,4963,3160,1,-1,0
0,4964,2100,-1,-1,0
0,4965,16590,1,-1,0
0,4966,980,1,-1,0
0,4967,9280,1,-1,0
0,4968,9280,-1,-1,0
0,4969,1000,1,-1,0
0,4970,2580,-1,-1,0
0,4971,7790,1,-1,0
0,4972,3880,-1,-1,0
0,4973,7210,-1,-1,0
0,4974,1580,1,-1,0
0,4975,4260,1,-1,0
0,4976,910,1,-1,0
0,4977,1960,1,-1,0
0,4978,9890,1,-1,0
0,4979,2520,1,-1,0
0,4980,620,1,-1,0
0,4981,1670,-1,-1,0
0,4982,1840,-1,-1,0
0,4983,1920,1,-1,0
0,4984,1500,1,-1,0
0,4985,2210,-1,-1,0
0,4986,810,-1,-1,0
0,4987,1770,-1,-1,0
0,4988,2190,1,-1,0
0,4989,15150,1,-1,0
0,4990,1340,1,-1,0
0,4991,1780,-1,-1,0
0,4992,1600,1,-1,0
0,4993,8160,-1,-1,0
0,4994,1750,-1,-1,0
0,4995,10440,1,-1,0
0,4996,2560,1,-1,0
0,4997,3700,-1,-1,0
0,4998,3440,1,-1,0
0,4999,500,1,-1,0
0,5000,2870,1,-1,0
0,5001,3680,1,-1,0
0,5002,8660,-1,-1,0
0,5003,680,1,-1,0
0,5004,10560,-1,-1,0
0,5005,13260,1,-1,0
0,5006,4870,1,-1,0
0,5007,3170,-1,-1,0
0,5008,1450,1,-1,0
0,5009,4160,1,-1,0
0,5010,1620,1,-1,0
0,5011,3910,1,-1,0
0,5012,860,1,-1,0
0,5013,3560,1,-1,0
0,5014,4790,1,-1,0
0,5015,4520,-1,-1,0
0,5016,4070,1,-1,0
0,5017,3810,1,-1,0
0,5018,1910,-1,-1,0
0,5019,4650,1,-1,0
0,5020,940,-1,-1,0
0,5021,2450,-1,-1,0
0,5022,2310,-1,-1,0
0,5023,1410,-1,-1,0
0,5024,7200,1,-1,0
0,5025,11850,1,-1,0
0,5026,7570,1,-1,0
0,5027,1000,1,-1,0
0,5028,1960,1,-1,0
0,5029,2300,-1,-1,0
0,5030,1990,-1,-1,0
0,5031,3030,-1,-1,0
0,5032,5570,1,-1,0
0,5033,3370,1,-1,0
0,5034,5990,1,-1,0
0,5035,1200,-1,-1,0
0,5036,7140,-1,-1,0
0,5037,4740,1,-1,0
0,5038,4540,-1,-1,0
0,5039,9110,-1,-1,0
0,5040,890,1,-1,0
0,5041,3110,1,-1,0
0,5042,8620,-1,-1,0
0,5043,4330,1,-1,0
0,5044,12870,-1,-1,0
0,5045,5050,-1,-1,0
0,5046,3220,-1,-1,0
0,5047,230,1,-1,0
0,5048,8020,-1,-1,0
0,5049,4920,-1,-1,0
0,5050,1530,1,-1,0
0,5051,1380,1,-1,0
0,5052,4970,1,-1,0
0,5053,1710,1,-1,0
0,5054,7520,-1,-1,0
0,5055,3670,1,-1,0
0,5056,1140,1,-1,0
0,5057,4430,-1,-1,0
0,5058,4770,-1,-1,0
0,5059,1260,1,-1,0
0,5060,2070,-1,-1,0
0,5061,3760,-1,-1,0
0,5062,2080,1,-1,0
0,5063,9640,1,-1,0
0,5064,3260,1,-1,0
0,5065,2470,1,-1,0
0,5066,510,1,-1,0
0,5067,1030,1,-1,0
0,5068,4520,1,-1,0
0,5069,920,1,-1,0
0,5070,11010,1,-1,0
0,5071,5870,1,-1,0
0,5072,23920,1,-1,0
0,5073,28500,1,-1,0
0,5074,1000,-1,-1,0
0,5075,1630,1,-1,0
0,5076,720,1,-1,0
0,5077,4000,1,-1,0
0,5078,3010,-1,-1,0
0,5079,4210,-1,-1,0
0,5080,2380,-1,-1,0
0,5081,3080,1,-1,0
0,5082,7060,-1,-1,0
0,5083,1100,-1,-1,0
0,5084,4040,1,-1,0
0,5085,6220,1,-1,0
0,5086,5970,1,-1,0
0,5087,1100,1,-1,0
0,5088,5100,1,-1,0
0,5089,1070,1,-1,0
0,5090,2500,1,-1,0
0,5091,3340,1,-1,0
0,5092,1550,1,-1,0
0,5093,4490,-1,-1,0
0,5094,4010,1,-1,0
0,5095,1580,-1,-1,0
0,5096,13480,-1,-1,0
0,5097,470,-1,-1,0
0,5098,1730,-1,-1,0
0,5099,1150,-1,-1,0
0,5100,860,1,-1,0
0,5101,7190,-1,-1,0
0,5102,2460,1,-1,0
0,5103,2550,-1,-1,0
0,5104,14810,1,-1,0
0,5105,3270,1,-1,0
0,5106,6180,-1,-1,0
0,5107,7260,1,-1,0
0,5108,4360,1,-1,0
0,5109,700,1,-1,0
0,5110,3560,-1,-1,0
0,5111,11050,-1,-1,0
0,5112,1290,1,-1,0
0,5113,1990,1,-1,0
0,5114,3050,1,-1,0
0,5115,6350,1,-1,0
0,5116,11600,1,-1,0
0,5117,4000,-1,-1,0
0,5118,4200,1,-1,0
0,5119,2900,-1,-1,0
0,5120,9630,-1,-1,0
0,5121,1520,-1,-1,0
0,5122,2070,1,-1,0
0,5123,2070,-1,-1,0
0,5124,1730,-1,-1,0
0,5125,3150,1,-1,0
0,5126,5290,-1,-1,0
0,5127,5580,1,-1,0
0,5128,3500,-1,-1,0
0,5129,870,-1,-1,0
0,5130,4050,1,-1,0
0,5131,2920,1,-1,0
0,5132,1990,-1,-1,0
0,5133,1860,1,-1,0
0,5134,3810,1,-1,0
0,5135,770,1,-1,0
0,5136,14170,1,-1,0
0,5137,3440,1,-1,0
0,5138,6770,1,-1,0
0,5139,1080,1,-1,0
0,5140,1640,1,-1,0
0,5141,1990,-1,-1,0
0,5142,1300,1,-1,0
0,5143,6960,1,-1,0
0,5144,4080,-1,-1,0
0,5145,5830,1,-1,0
0,5146,3310,1,-1,0
0,5147,4830,1,-1,0
0,5148,4110,-1,-1,0
0,5149,4830,1,-1,0
0,5150,5530,1,-1,0
0,5151,13160,-1,-1,0
0,5152,1830,-1,-1,0
0,5153,6980,-1,-1,0
0,5154,3570,-1,-1,0
0,5155,2440,1,-1,0
0,5156,3030,1,-1,0
0,5157,4100,1,-1,0
0,5158,1070,-1,-1,0
0,5159,2910,-1,-1,0
0,5160,9980,-1,-1,0
0,5161,12920,-1,-1,0
0,5162,7510,1,-1,0
0,5163,850,1,-1,0
0,5164,1460,-1,-1,0
0,5165,6080,-1,-1,0
0,5166,1520,1,-1,0
0,5167,2880,1,-1,0
0,5168,5040,1,-1,0
0,5169,1630,-1,-1,0
0,5170,19510,1,-1,0
0,5171,7320,1,-1,0
0,5172,7090,1,-1,0
0,5173,990,-1,-1,0
0,5174,2390,1,-1,0
0,5175,840,1,-1,0
0,5176,2080,-1,-1,0
0,5177,2480,-1,-1,0
0,5178,3180,-1,-1,0
0,5179,730,-1,-1,0
0,5180,570,1,-1,0
0,5181,2030,1,-1,0
0,5182,7170,1,-1,0
0,5183,21530,1,-1,0
0,5184,3680,1,-1,0
0,5185,4710,1,-1,0
0,5186,5980,1,-1,0
0,5187,7440,-1,-1,0
0,5188,9980,1,-1,0
0,5189,2910,1,-1,0
0,5190,1990,-1,-1,0
0,5191,950,1,-1,0
0,5192,2400,-1,-1,0
0,5193,2870,1,-1,0
0,5194,2370,1,-1,0
0,5195,870,-1,-1,0
0,5196,5390,-1,-1,0
0,5197,6130,1,-1,0
0,5198,5210,1,-1,0
0,5199,5790,-1,-1,0
0,5200,5970,1,-1,-1
0,5201,1760,1,-1,-1
0,5202,3050,1,-1,-1
0,5203,3490,1,-1,-1
0,5204,3860,1,-1,-1
0,5205,2030,-1,-1,-1
0,5206,1650,-1,-1,-1
0,5207,1680,-1,-1,-1
0,5208,1820,-1,-1,-1
0,5209,1120,1,-1,-1
0,5210,7910,-1,-1,-1
0,5211,15080,1,-1,-1
