parcode,trial,rt,choice,item_left,item_right
0,0,2180,1,1,1
0,1,3320,-1,1,1
0,2,5900,1,1,1
0,3,7310,1,1,1
0,4,1040,1,1,1
0,5,1290,1,1,1
0,6,2090,1,1,1
0,7,3000,-1,1,1
0,8,1840,1,1,1
0,9,3230,1,1,1
0,10,1230,1,1,1
0,11,1070,1,1,1
0,12,1400,1,1,1
0,13,2080,1,1,1
0,14,1330,-1,1,1
0,15,11620,1,1,1
0,16,1770,1,1,1
0,17,9440,1,1,1
0,18,2780,1,1,1
0,19,5540,1,1,1
0,20,2780,-1,1,1
0,21,3420,1,1,1
0,22,2200,1,1,1
0,23,2960,-1,1,1
0,24,2770,1,1,1
0,25,2570,1,1,1
0,26,1570,1,1,1
0,27,2770,1,1,1
0,28,9310,-1,1,1
0,29,2510,1,1,1
0,30,4920,-1,1,1
0,31,1980,1,1,1
0,32,6700,1,1,1
0,33,1580,1,1,1
0,34,5930,1,1,1
0,35,3630,-1,1,1
0,36,3870,1,1,1
0,37,5160,1,1,1
0,38,1050,1,1,1
0,39,890,1,1,1
0,40,1590,1,1,1
0,41,2510,1,1,1
0,42,1210,-1,1,1
0,43,4210,1,1,1
0,44,3160,1,1,1
0,45,5720,-1,1,1
0,46,15950,1,1,1
0,47,4690,1,1,1
0,48,1870,1,1,1
0,49,1370,1,1,1
0,50,12390,1,1,1
0,51,1080,-1,1,1
0,52,3560,1,1,1
0,53,2970,1,1,1
0,54,4430,-1,1,1
0,55,6360,1,1,1
0,56,2770,1,1,1
0,57,1620,1,1,1
0,58,1680,1,1,1
0,59,2380,1,1,1
0,60,2180,1,1,1
0,61,4920,1,1,1
0,62,3400,1,1,1
0,63,1470,1,1,1
0,64,2740,-1,1,1
0,65,1140,-1,1,1
0,66,1840,1,1,1
0,67,4500,1,1,1
0,68,3800,1,1,1
0,69,3020,1,1,1
0,70,3900,1,1,1
0,71,7640,-1,1,1
0,72,7320,1,1,1
0,73,5860,1,1,1
0,74,8670,1,1,1
0,75,880,1,1,1
0,76,1760,1,1,1
0,77,8530,1,1,1
0,78,2020,1,1,1
0,79,3300,1,1,1
0,80,7240,1,1,1
0,81,2990,1,1,1
0,82,4970,1,1,1
0,83,2650,1,1,1
0,84,1110,1,1,1
0,85,2240,-1,1,1
0,86,4720,1,1,1
0,87,2210,1,1,1
0,88,970,-1,1,1
0,89,4640,1,1,1
0,90,2580,1,1,1
0,91,7000,1,1,1
0,92,2880,-1,1,1
0,93,2800,1,1,1
0,94,4060,1,1,1
0,95,1770,1,1,1
0,96,8200,1,1,1
0,97,2670,1,1,1
0,98,4540,1,1,1
0,99,3910,1,1,1
0,100,470,1,1,1
0,101,6480,-1,1,1
0,102,1070,1,1,1
0,103,2990,1,1,1
0,104,390,1,1,1
0,105,2670,-1,1,1
0,106,4140,1,1,1
0,107,2560,1,1,1
0,108,1800,1,1,1
0,109,9390,1,1,1
0,110,910,-1,1,1
0,111,2520,1,1,1
0,112,1250,1,1,1
0,113,1380,1,1,1
0,114,1440,1,1,1
0,115,3650,1,1,1
0,116,2130,1,1,1
0,117,6540,-1,1,1
0,118,3590,1,1,1
0,119,1400,1,1,1
0,120,1090,1,1,1
0,121,10690,1,1,1
0,122,2610,1,1,1
0,123,1210,1,1,1
0,124,9000,1,1,1
0,125,3440,1,1,1
0,126,2640,-1,1,1
0,127,1460,1,1,1
0,128,1630,1,1,1
0,129,1640,1,1,1
0,130,2340,1,1,1
0,131,5510,1,1,1
0,132,6860,1,1,1
0,133,790,1,1,1
0,134,4700,1,1,1
0,135,1370,1,1,1
0,136,2800,1,1,1
0,137,1050,-1,1,1
0,138,3240,-1,1,1
0,139,1010,1,1,1
0,140,2670,1,1,1
0,141,690,-1,1,1
0,142,1620,1,1,1
0,143,1700,1,1,1
0,144,5400,1,1,1
0,145,5870,1,1,1
0,146,860,-1,1,1
0,147,2500,1,1,1
0,148,1730,1,1,1
0,149,3710,1,1,1
0,150,1110,-1,1,1
0,151,1230,1,1,1
0,152,740,-1,1,1
0,153,2480,-1,1,1
0,154,1420,1,1,1
0,155,4290,1,1,1
0,156,660,1,1,1
0,157,3440,1,1,1
0,158,2970,1,1,1
0,159,9720,1,1,1
0,160,8850,1,1,1
0,161,3020,1,1,1
0,162,2110,1,1,1
0,163,1930,1,1,1
0,164,1630,1,1,1
0,165,6870,1,1,1
0,166,4330,1,1,1
0,167,1970,-1,1,1
0,168,2670,1,1,1
0,169,5480,1,1,1
0,170,1480,1,1,1
0,171,2150,1,1,1
0,172,5150,1,1,1
0,173,2790,1,1,1
0,174,700,-1,1,1
0,175,4410,1,1,1
0,176,14400,-1,1,1
0,177,9930,1,1,1
0,178,1200,1,1,1
0,179,5480,-1,1,1
0,180,8470,1,1,1
0,181,800,1,1,1
0,182,1820,1,1,1
0,183,1070,1,1,1
0,184,1370,1,1,1
0,185,6290,1,1,1
0,186,1920,1,1,1
0,187,1480,1,1,1
0,188,6890,1,1,1
0,189,3940,1,1,1
0,190,2950,-1,1,1
0,191,4330,1,1,1
0,192,1600,-1,1,1
0,193,1510,1,1,1
0,194,1360,1,1,1
0,195,6310,1,1,1
0,196,2530,1,1,1
0,197,2240,1,1,1
0,198,4650,-1,1,1
0,199,1660,1,1,1
0,200,2610,-1,1,1
0,201,1420,-1,1,1
0,202,6010,1,1,1
0,203,5390,1,1,1
0,204,1230,-1,1,1
0,205,8010,1,1,1
0,206,3990,1,1,1
0,207,12510,-1,1,1
0,208,1320,1,1,1
0,209,5630,-1,1,1
0,210,2710,1,1,1
0,211,5060,1,1,1
0,212,9160,1,1,1
0,213,4510,1,1,1
0,214,3490,-1,1,1
0,215,3200,1,1,1
0,216,5770,-1,1,1
0,217,1080,1,1,1
0,218,3310,1,1,1
0,219,1390,1,1,1
0,220,890,1,1,1
0,221,1130,1,1,1
0,222,1620,1,1,1
0,223,7430,-1,1,1
0,224,3860,1,1,1
0,225,5230,1,1,1
0,226,810,-1,1,1
0,227,1050,1,1,1
0,228,2000,1,1,1
0,229,1700,1,1,1
0,230,1290,-1,1,1
0,231,6610,1,1,1
0,232,1300,1,1,1
0,233,2770,1,1,1
0,234,3860,1,1,1
0,235,4600,1,1,1
0,236,1020,-1,1,1
0,237,1600,1,1,1
0,238,8290,1,1,1
0,239,3370,-1,1,1
0,240,6990,-1,1,1
0,241,1850,1,1,1
0,242,2080,-1,1,1
0,243,3060,1,1,1
0,244,5810,1,1,1
0,245,7820,1,1,1
0,246,680,1,1,1
0,247,3030,1,1,1
0,248,10390,1,1,1
0,249,990,1,1,1
0,250,3410,1,1,1
0,251,1680,1,1,1
0,252,5520,1,1,1
0,253,1810,1,1,1
0,254,570,1,1,1
0,255,1760,1,1,1
0,256,1220,1,1,1
0,257,3350,1,1,1
0,258,6580,-1,1,1
0,259,8040,1,1,1
0,260,1680,1,1,1
0,261,1430,1,1,1
0,262,5380,1,1,1
0,263,5390,1,1,1
0,264,1360,1,1,1
0,265,1570,1,1,1
0,266,4070,1,1,1
0,267,1230,-1,1,1
0,268,7290,1,1,1
0,269,1930,1,1,1
0,270,4080,-1,1,1
0,271,2130,1,1,1
0,272,2520,1,1,1
0,273,1340,1,1,1
0,274,1310,1,1,1
0,275,3490,1,1,1
0,276,4640,1,1,1
0,277,1470,1,1,1
0,278,950,1,1,1
0,279,5140,1,1,1
0,280,1970,1,1,1
0,281,2690,1,1,1
0,282,2320,1,1,1
0,283,5560,1,1,1
0,284,1380,1,1,1
0,285,1490,1,1,1
0,286,2930,-1,1,1
0,287,2150,1,1,1
0,288,1720,-1,1,1
0,289,1210,1,1,1
0,290,1640,-1,1,1
0,291,1990,1,1,1
0,292,2900,1,1,1
0,293,2060,-1,1,1
0,294,1130,1,1,1
0,295,5640,1,1,1
0,296,2690,-1,1,1
0,297,3520,1,1,1
0,298,2560,1,1,1
0,299,2660,1,1,1
0,300,1810,1,1,1
0,301,2100,1,1,1
0,302,1740,-1,1,1
0,303,9590,1,1,1
0,304,2650,1,1,1
0,305,5430,1,1,1
0,306,2980,1,1,1
0,307,6050,1,1,1
0,308,4810,-1,1,1
0,309,8820,1,1,1
0,310,8760,1,1,1
0,311,6860,1,1,1
0,312,4710,1,1,1
0,313,3220,1,1,1
0,314,3210,1,1,1
0,315,1630,1,1,1
0,316,1690,1,1,1
0,317,1920,1,1,1
0,318,2400,1,1,1
0,319,6040,1,1,1
0,320,1590,1,1,1
0,321,1900,-1,1,1
0,322,7230,1,1,1
0,323,13730,1,1,1
0,324,640,1,1,1
0,325,790,1,1,1
0,326,4080,1,1,1
0,327,630,-1,1,1
0,328,2780,1,1,1
0,329,4640,1,1,1
0,330,4680,1,1,1
0,331,3760,1,1,1
0,332,3940,1,1,1
0,333,19450,1,1,1
0,334,7250,1,1,1
0,335,4050,1,1,1
0,336,3680,1,1,1
0,337,1180,1,1,1
0,338,2330,1,1,1
0,339,2020,1,1,1
0,340,4180,1,1,1
0,341,1850,-1,1,1
0,342,2180,1,1,1
0,343,2830,-1,1,1
0,344,1650,1,1,1
0,345,3700,1,1,1
0,346,3510,1,1,1
0,347,5280,1,1,1
0,348,3630,1,1,1
0,349,3250,1,1,1
0,350,700,1,1,1
0,351,2370,1,1,1
0,352,3400,1,1,1
0,353,3620,-1,1,1
0,354,8940,1,1,1
0,355,2380,1,1,1
0,356,2000,1,1,1
0,357,6370,-1,1,1
0,358,3450,1,1,1
0,359,2800,1,1,1
0,360,2560,1,1,1
0,361,900,1,1,1
0,362,2800,1,1,1
0,363,1570,-1,1,1
0,364,12410,-1,1,1
0,365,1620,1,1,1
0,366,470,1,1,1
0,367,830,1,1,1
0,368,6760,1,1,1
0,369,2840,-1,1,1
0,370,2910,1,1,1
0,371,4250,1,1,1
0,372,4910,1,1,1
0,373,3590,1,1,1
0,374,1280,1,1,1
0,375,6600,1,1,1
0,376,2190,1,1,1
0,377,3880,1,1,1
0,378,3420,1,1,1
0,379,6810,1,1,1
0,380,1490,1,1,1
0,381,2420,1,1,1
0,382,7160,1,1,1
0,383,1620,1,1,1
0,384,2190,1,1,1
0,385,3480,1,1,1
0,386,1930,1,1,1
0,387,2700,1,1,1
0,388,850,1,1,1
0,389,3680,1,1,1
0,390,10940,-1,1,1
0,391,3910,1,1,1
0,392,2120,-1,1,1
0,393,3690,-1,1,1
0,394,2810,1,1,1
0,395,2380,1,1,1
0,396,2270,1,1,1
0,397,4980,1,1,1
0,398,3990,1,1,1
0,399,2130,1,1,1
0,400,12900,1,-1,-1
0,401,4950,-1,-1,-1
0,402,2810,-1,-1,-1
0,403,8610,-1,-1,-1
0,404,2880,1,-1,-1
0,405,4700,1,-1,-1
0,406,2610,-1,-1,-1
0,407,11200,-1,-1,-1
0,408,7260,1,-1,-1
0,409,3770,1,-1,-1
0,410,2120,-1,-1,-1
0,411,410,-1,-1,-1
0,412,3330,-1,-1,-1
0,413,1260,1,-1,-1
0,414,6660,1,-1,-1
0,415,5150,1,-1,-1
0,416,3480,1,-1,-1
0,417,1650,1,-1,-1
0,418,6270,-1,-1,-1
0,419,4710,1,-1,-1
0,420,3580,1,-1,-1
0,421,8790,-1,-1,-1
0,422,6500,1,-1,-1
0,423,840,1,-1,-1
0,424,2160,-1,-1,-1
0,425,5790,-1,-1,-1
0,426,1910,-1,-1,-1
0,427,7160,-1,-1,-1
0,428,3570,1,-1,-1
0,429,32270,1,-1,-1
0,430,2630,-1,-1,-1
0,431,9360,-1,-1,-1
0,432,1220,-1,-1,-1
0,433,8480,-1,-1,-1
0,434,1020,-1,-1,-1
0,435,4120,-1,-1,-1
0,436,2310,-1,-1,-1
0,437,7110,1,-1,-1
0,438,1280,-1,-1,-1
0,439,16000,-1,-1,-1
0,440,3430,1,-1,-1
0,441,5240,1,-1,-1
0,442,790,1,-1,-1
0,443,1010,-1,-1,-1
0,444,10910,1,-1,-1
0,445,1650,-1,-1,-1
0,446,760,-1,-1,-1
0,447,2720,1,-1,-1
0,448,2220,1,-1,-1
0,449,4100,-1,-1,-1
0,450,5170,1,-1,-1
0,451,3920,1,-1,-1
0,452,1900,-1,-1,-1
0,453,1290,1,-1,-1
0,454,6810,-1,-1,-1
0,455,2690,1,-1,-1
0,456,3950,-1,-1,-1
0,457,2650,-1,-1,-1
0,458,7320,1,-1,-1
0,459,1120,1,-1,-1
0,460,4890,1,-1,-1
0,461,5960,1,-1,-1
0,462,2720,-1,-1,-1
0,463,8440,1,-1,-1
0,464,1960,-1,-1,-1
0,465,2100,1,-1,-1
0,466,20960,-1,-1,-1
0,467,1520,-1,-1,-1
0,468,4590,1,-1,-1
0,469,2870,-1,-1,-1
0,470,5920,-1,-1,-1
0,471,5610,-1,-1,-1
0,472,10670,1,-1,-1
0,473,3480,1,-1,-1
0,474,2160,-1,-1,-1
0,475,3900,1,-1,-1
0,476,10220,1,-1,-1
0,477,7500,1,-1,-1
0,478,5250,-1,-1,-1
0,479,3030,-1,-1,-1
0,480,2100,-1,-1,-1
0,481,7200,1,-1,-1
0,482,6530,1,-1,-1
0,483,6940,1,-1,-1
0,484,5620,1,-1,-1
0,485,1970,-1,-1,-1
0,486,1950,1,-1,-1
0,487,1570,-1,-1,-1
0,488,5720,1,-1,-1
0,489,5130,1,-1,-1
0,490,6390,1,-1,-1
0,491,470,-1,-1,-1
0,492,1650,1,-1,-1
0,493,910,-1,-1,-1
0,494,3260,1,-1,-1
0,495,1710,1,-1,-1
0,496,6860,1,-1,-1
0,497,2160,1,-1,-1
0,498,1370,-1,-1,-1
0,499,1640,1,-1,-1
0,500,1790,-1,-1,-1
0,501,1990,-1,-1,-1
0,502,3900,1,-1,-1
0,503,910,1,-1,-1
0,504,3000,1,-1,-1
0,505,15680,-1,-1,-1
0,506,9590,-1,-1,-1
0,507,3670,-1,-1,-1
0,508,1680,1,-1,-1
0,509,2840,-1,-1,-1
0,510,3980,1,-1,-1
0,511,3280,-1,-1,-1
0,512,1670,-1,-1,-1
0,513,5240,1,-1,-1
0,514,2730,1,-1,-1
0,515,4140,-1,-1,-1
0,516,5840,1,-1,-1
0,517,3920,1,-1,-1
0,518,10390,1,-1,-1
0,519,2630,-1,-1,-1
0,520,1350,1,-1,-1
0,521,7180,-1,-1,-1
0,522,5930,1,-1,-1
0,523,5030,1,-1,-1
0,524,7880,-1,-1,-1
0,525,2780,1,-1,-1
0,526,3800,1,-1,-1
0,527,2390,-1,-1,-1
0,528,4600,-1,-1,-1
0,529,2170,1,-1,-1
0,530,1910,-1,-1,-1
0,531,1180,1,-1,-1
0,532,2540,1,-1,-1
0,533,9490,-1,-1,-1
0,534,8950,1,-1,-1
0,535,1450,1,-1,-1
0,536,1460,1,-1,-1
0,537,5480,1,-1,-1
0,538,4790,-1,-1,-1
0,539,2640,1,-1,-1
0,540,3970,-1,-1,-1
0,541,810,1,-1,-1
0,542,2370,-1,-1,-1
0,543,1510,-1,-1,-1
0,544,3240,1,-1,-1
0,545,3100,1,-1,-1
0,546,4440,1,-1,-1
0,547,3340,1,-1,-1
0,548,5890,1,-1,-1
0,549,2010,-1,-1,-1
0,550,3390,1,-1,-1
0,551,3290,-1,-1,-1
0,552,1950,1,-1,-1
0,553,460,1,-1,-1
0,554,1890,1,-1,-1
0,555,4000,1,-1,-1
0,556,5520,-1,-1,-1
0,557,5520,-1,-1,-1
0,558,7900,-1,-1,-1
0,559,3810,-1,-1,-1
0,560,560,-1,-1,-1
0,561,2690,1,-1,-1
0,562,8090,-1,-1,-1
0,563,6460,1,-1,-1
0,564,700,1,-1,-1
0,565,570,1,-1,-1
0,566,3280,-1,-1,-1
0,567,9550,1,-1,-1
0,568,4250,1,-1,-1
0,569,2100,-1,-1,-1
0,570,1560,1,-1,-1
0,571,1610,1,-1,-1
0,572,16560,1,-1,-1
0,573,1430,1,-1,-1
0,574,820,1,-1,-1
0,575,1810,-1,-1,-1
0,576,3120,1,-1,-1
0,577,4440,-1,-1,-1
0,578,2030,-1,-1,-1
0,579,3890,1,-1,-1
0,580,3240,1,-1,-1
0,581,1380,-1,-1,-1
0,582,11530,-1,-1,-1
0,583,700,1,-1,-1
0,584,1560,-1,-1,-1
0,585,4430,1,-1,-1
0,586,7440,1,-1,-1
0,587,520,1,-1,-1
0,588,3380,1,-1,-1
0,589,22890,1,-1,-1
0,590,9610,1,-1,-1
0,591,2010,-1,-1,-1
0,592,1280,1,-1,-1
0,593,1150,1,-1,-1
0,594,14370,1,-1,-1
0,595,6470,-1,-1,-1
0,596,6730,-1,-1,-1
0,597,1870,-1,-1,-1
0,598,5290,-1,-1,-1
0,599,2130,-1,-1,-1
0,600,1660,1,-1,-1
0,601,1460,-1,-1,-1
0,602,4650,-1,-1,-1
0,603,3620,-1,-1,-1
0,604,880,-1,-1,-1
0,605,1130,-1,-1,-1
0,606,3400,-1,-1,-1
0,607,9590,-1,-1,-1
0,608,1090,1,-1,-1
0,609,2090,1,-1,-1
0,610,680,1,-1,-1
0,611,6050,1,-1,-1
0,612,4550,-1,-1,-1
0,613,1250,1,-1,-1
0,614,1030,1,-1,-1
0,615,6930,-1,-1,-1
0,616,860,1,-1,-1
0,617,3650,1,-1,-1
0,618,380,1,-1,-1
0,619,5950,-1,-1,-1
0,620,6310,-1,-1,-1
0,621,1280,1,-1,-1
0,622,3750,1,-1,-1
0,623,1690,-1,-1,-1
0,624,3580,1,-1,-1
0,625,3130,1,-1,-1
0,626,1900,-1,-1,-1
0,627,690,-1,-1,-1
0,628,1380,1,-1,-1
0,629,6610,1,-1,-1
0,630,2280,-1,-1,-1
0,631,4510,1,-1,-1
0,632,3650,-1,-1,-1
0,633,9020,-1,-1,-1
0,634,770,-1,-1,-1
0,635,3790,1,-1,-1
0,636,4670,-1,-1,-1
0,637,2110,1,-1,-1
0,638,2900,1,-1,-1
0,639,4700,1,-1,-1
0,640,540,1,-1,-1
0,641,6150,-1,-1,-1
0,642,6940,1,-1,-1
0,643,2670,-1,-1,-1
0,644,5440,1,-1,-1
0,645,5540,-1,-1,-1
0,646,1590,1,-1,-1
0,647,7870,1,-1,-1
0,648,8610,-1,-1,-1
0,649,5920,1,-1,-1
0,650,5830,1,-1,-1
0,651,1790,1,-1,-1
0,652,10270,-1,-1,-1
0,653,2060,1,-1,-1
0,654,1430,1,-1,-1
0,655,4450,-1,-1,-1
0,656,10390,-1,-1,-1
0,657,11580,-1,-1,-1
0,658,1800,1,-1,-1
0,659,1630,-1,-1,-1
0,660,16170,1,-1,-1
0,661,3110,-1,-1,-1
0,662,8500,1,-1,-1
0,663,5050,1,-1,-1
0,664,3390,1,-1,-1
0,665,4740,1,-1,-1
0,666,9590,1,-1,-1
0,667,1270,-1,-1,-1
0,668,2020,1,-1,-1
0,669,10270,-1,-1,-1
0,670,5980,1,-1,-1
0,671,4520,-1,-1,-1
0,672,5070,1,-1,-1
0,673,2340,1,-1,-1
0,674,2400,1,-1,-1
0,675,6950,-1,-1,-1
0,676,1270,1,-1,-1
0,677,960,-1,-1,-1
0,678,3910,-1,-1,-1
0,679,5520,-1,-1,-1
0,680,4410,1,-1,-1
0,681,3700,-1,-1,-1
0,682,5000,1,-1,-1
0,683,6380,-1,-1,-1
0,684,2710,-1,-1,-1
0,685,880,1,-1,-1
0,686,750,1,-1,-1
0,687,1950,-1,-1,-1
0,688,4750,1,-1,-1
0,689,830,1,-1,-1
0,690,2760,1,-1,-1
0,691,8080,1,-1,-1
0,692,1400,-1,-1,-1
0,693,2500,-1,-1,-1
0,694,1110,-1,-1,-1
0,695,15600,1,-1,-1
0,696,970,1,-1,-1
0,697,810,-1,-1,-1
0,698,1770,-1,-1,-1
0,699,12080,1,-1,-1
0,700,2140,-1,-1,-1
0,701,8310,1,-1,-1
0,702,7960,1,-1,-1
0,703,2420,1,-1,-1
0,704,4400,1,-1,-1
0,705,3770,-1,-1,-1
0,706,4350,-1,-1,-1
0,707,3200,-1,-1,-1
0,708,6020,1,-1,-1
0,709,2810,1,-1,-1
0,710,2030,-1,-1,-1
0,711,2060,1,-1,-1
0,712,6500,-1,-1,-1
0,713,3290,1,-1,-1
0,714,5680,-1,-1,-1
0,715,2490,1,-1,-1
0,716,3390,-1,-1,-1
0,717,1780,1,-1,-1
0,718,6980,-1,-1,-1
0,719,3980,1,-1,-1
0,720,1930,1,-1,-1
0,721,11230,-1,-1,-1
0,722,1170,-1,-1,-1
0,723,1100,-1,-1,-1
0,724,3650,1,-1,-1
0,725,1880,-1,-1,-1
0,726,5380,-1,-1,-1
0,727,2920,1,-1,-1
0,728,4670,-1,-1,-1
0,729,3120,-1,-1,-1
0,730,11800,-1,-1,-1
0,731,13980,-1,-1,-1
0,732,7310,-1,-1,-1
0,733,6990,-1,-1,-1
0,734,11130,1,-1,-1
0,735,310,-1,-1,-1
0,736,6260,1,-1,-1
0,737,5150,1,-1,-1
0,738,10600,-1,-1,-1
0,739,2650,1,-1,-1
0,740,3820,1,-1,-1
0,741,4530,1,-1,-1
0,742,3160,1,-1,-1
0,743,2520,-1,-1,-1
0,744,2700,-1,-1,-1
0,745,12970,-1,-1,-1
0,746,3360,-1,-1,-1
0,747,2940,-1,-1,-1
0,748,2570,1,-1,-1
0,749,8720,1,-1,-1
0,750,6110,1,-1,-1
0,751,910,1,-1,-1
0,752,2760,-1,-1,-1
0,753,1610,1,-1,-1
0,754,1620,1,-1,-1
0,755,1110,1,-1,-1
0,756,2070,-1,-1,-1
0,757,1030,1,-1,-1
0,758,4470,1,-1,-1
0,759,3380,1,-1,-1
0,760,7400,-1,-1,-1
0,761,1050,1,-1,-1
0,762,3290,1,-1,-1
0,763,4030,1,-1,-1
0,764,3390,1,-1,-1
0,765,2110,-1,-1,-1
0,766,2260,-1,-1,-1
0,767,3330,1,-1,-1
0,768,8210,-1,-1,-1
0,769,2200,-1,-1,-1
0,770,4800,1,-1,-1
0,771,8070,1,-1,-1
0,772,1350,1,-1,-1
0,773,7040,1,-1,-1
0,774,2760,-1,-1,-1
0,775,530,-1,-1,-1
0,776,3260,1,-1,-1
0,777,4330,-1,-1,-1
0,778,580,1,-1,-1
0,779,6190,1,-1,-1
0,780,3420,-1,-1,-1
0,781,6100,-1,-1,-1
0,782,1670,1,-1,-1
0,783,4510,1,-1,-1
0,784,2090,1,-1,-1
0,785,3180,1,-1,-1
0,786,2390,1,-1,-1
0,787,1070,1,-1,-1
0,788,3460,1,-1,-1
0,789,5340,1,-1,-1
0,790,8410,-1,-1,-1
0,791,4750,1,-1,-1
0,792,3570,-1,-1,-1
0,793,4780,-1,-1,-1
0,794,1550,-1,-1,-1
0,795,11840,1,-1,-1
0,796,1780,1,-1,-1
0,797,6940,1,-1,-1
0,798,4340,1,-1,-1
0,799,3590,1,-1,-1
0,800,7530,1,-1,-1
0,801,1510,-1,-1,-1
0,802,8520,-1,-1,-1
0,803,1250,-1,-1,-1
0,804,6380,1,-1,-1
0,805,15930,-1,-1,-1
0,806,780,1,-1,-1
0,807,7980,-1,-1,-1
0,808,4750,-1,-1,-1
0,809,1770,-1,-1,-1
0,810,280,1,-1,-1
0,811,1670,-1,-1,-1
0,812,6350,-1,-1,-1
0,813,1240,-1,-1,-1
0,814,7540,-1,-1,-1
0,815,1350,-1,-1,-1
0,816,1180,1,-1,-1
0,817,1230,-1,-1,-1
0,818,4500,1,-1,-1
0,819,4390,-1,-1,-1
0,820,4620,1,-1,-1
0,821,3990,-1,-1,-1
0,822,6110,-1,-1,-1
0,823,6100,-1,-1,-1
0,824,430,-1,-1,-1
0,825,1650,1,-1,-1
0,826,1820,-1,-1,-1
0,827,6090,-1,-1,-1
0,828,930,-1,-1,-1
0,829,3050,-1,-1,-1
0,830,1530,-1,-1,-1
0,831,2320,1,-1,-1
0,832,1350,1,-1,-1
0,833,5810,-1,-1,-1
0,834,3380,1,-1,-1
0,835,1650,-1,-1,-1
0,836,2510,-1,-1,-1
0,837,590,1,-1,-1
0,838,1920,-1,-1,-1
0,839,3110,-1,-1,-1
0,840,1750,-1,-1,-1
0,841,2230,1,-1,-1
0,842,1520,1,-1,-1
0,843,2930,-1,-1,-1
0,844,9190,-1,-1,-1
0,845,8430,1,-1,-1
0,846,1230,1,-1,-1
0,847,6740,-1,-1,-1
0,848,3770,-1,-1,-1
0,849,1940,1,-1,-1
0,850,3460,1,-1,-1
0,851,12440,1,-1,-1
0,852,2980,1,-1,-1
0,853,2610,-1,-1,-1
0,854,11260,-1,-1,-1
0,855,4330,1,-1,-1
0,856,3140,-1,-1,-1
0,857,2970,-1,-1,-1
0,858,4530,-1,-1,-1
0,859,3910,1,-1,-1
0,860,2650,-1,-1,-1
0,861,690,1,-1,-1
0,862,2160,-1,-1,-1
0,863,12880,-1,-1,-1
0,864,3910,1,-1,-1
0,865,4850,-1,-1,-1
0,866,3220,-1,-1,-1
0,867,12550,-1,-1,-1
0,868,6440,-1,-1,-1
0,869,6600,1,-1,-1
0,870,1960,-1,-1,-1
0,871,1490,-1,-1,-1
0,872,770,1,-1,-1
0,873,1450,1,-1,-1
0,874,3980,-1,-1,-1
0,875,13040,-1,-1,-1
0,876,3600,-1,-1,-1
0,877,2930,1,-1,-1
0,878,13050,-1,-1,-1
0,879,4260,-1,-1,-1
0,880,750,-1,-1,-1
0,881,4300,1,-1,-1
0,882,5010,1,-1,-1
0,883,2820,1,-1,-1
0,884,660,-1,-1,-1
0,885,1670,-1,-1,-1
0,886,9610,1,-1,-1
0,887,5580,-1,-1,-1
0,888,6520,-1,-1,-1
0,889,4850,-1,-1,-1
0,890,2660,1,-1,-1
0,891,1700,-1,-1,-1
0,892,11490,-1,-1,-1
0,893,2910,-1,-1,-1
0,894,2290,-1,-1,-1
0,895,4270,-1,-1,-1
0,896,1110,-1,-1,-1
0,897,910,-1,-1,-1
0,898,4470,1,-1,-1
0,899,2990,-1,-1,-1
0,900,5250,1,-1,-1
0,901,1070,1,-1,-1
0,902,3400,-1,-1,-1
0,903,5120,1,-1,-1
0,904,7370,1,-1,-1
0,905,2690,-1,-1,-1
0,906,900,-1,-1,-1
0,907,1860,-1,-1,-1
0,908,11030,-1,-1,-1
0,909,3960,1,-1,-1
0,910,3610,1,-1,-1
0,911,7600,-1,-1,-1
0,912,2300,-1,-1,-1
0,913,1430,-1,-1,-1
0,914,3620,-1,-1,-1
0,915,1040,1,-1,-1
0,916,6570,1,-1,-1
0,917,2790,-1,-1,-1
0,918,2200,-1,-1,-1
0,919,650,1,-1,-1
0,920,2620,1,-1,-1
0,921,2950,-1,-1,-1
0,922,1980,1,-1,-1
0,923,3690,1,-1,-1
0,924,2880,-1,-1,-1
0,925,6420,1,-1,-1
0,926,830,-1,-1,-1
0,927,650,-1,-1,-1
0,928,7050,-1,-1,-1
0,929,2170,-1,-1,-1
0,930,2230,-1,-1,-1
0,931,1360,-1,-1,-1
0,932,4150,-1,-1,-1
0,933,5050,-1,-1,-1
0,934,7710,1,-1,-1
0,935,3560,-1,-1,-1
0,936,7200,-1,-1,-1
0,937,9170,-1,-1,-1
0,938,910,-1,-1,-1
0,939,5410,-1,-1,-1
0,940,12740,1,-1,-1
0,941,4940,-1,-1,-1
0,942,5910,1,-1,-1
0,943,1970,-1,-1,-1
0,944,4200,-1,-1,-1
0,945,1370,-1,-1,-1
0,946,2990,-1,-1,-1
0,947,4950,-1,-1,-1
0,948,4290,-1,-1,-1
0,949,2040,1,-1,-1
0,950,11430,-1,-1,-1
0,951,4820,-1,-1,-1
0,952,4300,1,-1,-1
0,953,5610,-1,-1,-1
0,954,1150,-1,-1,-1
0,955,1030,-1,-1,-1
0,956,1440,-1,-1,-1
0,957,7350,-1,-1,-1
0,958,7660,-1,-1,-1
0,959,6510,-1,-1,-1
0,960,1860,-1,-1,-1
0,961,2140,-1,-1,-1
0,962,750,1,-1,-1
0,963,8090,-1,-1,-1
0,964,2920,-1,-1,-1
0,965,9720,1,-1,-1
0,966,4170,-1,-1,-1
0,967,830,1,-1,-1
0,968,740,-1,-1,-1
0,969,1420,-1,-1,-1
0,970,6380,-1,-1,-1
0,971,2690,-1,-1,-1
0,972,4900,1,-1,-1
0,973,1400,1,-1,-1
0,974,2900,-1,-1,-1
0,975,640,-1,-1,-1
0,976,2410,1,-1,-1
0,977,2490,-1,-1,-1
0,978,3160,1,-1,-1
0,979,2150,-1,-1,-1
0,980,5530,-1,-1,-1
0,981,5020,1,-1,-1
0,982,2860,1,-1,-1
0,983,2870,1,-1,-1
0,984,3450,-1,-1,-1
0,985,1520,-1,-1,-1
0,986,800,-1,-1,-1
0,987,1350,-1,-1,-1
0,988,2760,1,-1,-1
0,989,1430,-1,-1,-1
0,990,7520,-1,-1,-1
0,991,15710,-1,-1,-1
0,992,1340,1,-1,-1
0,993,3490,-1,-1,-1
0,994,3660,-1,-1,-1
0,995,1220,-1,-1,-1
0,996,5680,1,-1,-1
0,997,4800,-1,-1,-1
0,998,1240,1,-1,-1
0,999,7300,1,-1,-1
0,1000,2400,-1,-1,-1
0,1001,8470,1,-1,-1
0,1002,2180,1,-1,-1
0,1003,3940,-1,-1,-1
0,1004,1500,-1,-1,-1
0,1005,960,-1,-1,-1
0,1006,1970,1,-1,-1
0,1007,4630,-1,-1,-1
0,1008,4480,-1,-1,-1
0,1009,4120,1,-1,-1
0,1010,2070,1,-1,-1
0,1011,2200,-1,-1,-1
0,1012,7950,-1,-1,-1
0,1013,4850,-1,-1,-1
0,1014,1680,1,-1,-1
0,1015,14680,-1,-1,-1
0,1016,4080,1,-1,-1
0,1017,4710,-1,-1,-1
0,1018,6600,-1,-1,-1
0,1019,500,-1,-1,-1
0,1020,1160,1,-1,-1
0,1021,9690,-1,-1,-1
0,1022,3520,-1,-1,-1
0,1023,1240,1,-1,-1
0,1024,3080,-1,-1,-1
0,1025,4300,-1,-1,-1
0,1026,1800,1,-1,-1
0,1027,1390,-1,-1,-1
0,1028,4040,-1,-1,-1
0,1029,880,-1,-1,-1
0,1030,4530,-1,-1,-1
0,1031,3980,1,-1,-1
0,1032,2510,-1,-1,-1
0,1033,2650,-1,-1,-1
0,1034,6290,-1,-1,-1
0,1035,3550,1,-1,-1
0,1036,3180,-1,-1,-1
0,1037,4370,1,-1,-1
0,1038,3630,-1,-1,-1
0,1039,5570,1,-1,-1
0,1040,720,1,-1,-1
0,1041,3720,-1,-1,-1
0,1042,4690,1,-1,-1
0,1043,5790,-1,-1,-1
0,1044,950,1,-1,-1
0,1045,2070,-1,-1,-1
0,1046,23310,-1,-1,-1
0,1047,4000,1,-1,-1
0,1048,2070,-1,-1,-1
0,1049,4490,1,-1,-1
0,1050,8860,1,-1,-1
0,1051,2300,1,-1,-1
0,1052,7200,-1,-1,-1
0,1053,4520,1,-1,-1
0,1054,5920,-1,-1,-1
0,1055,920,1,-1,-1
0,1056,3710,1,-1,-1
0,1057,4100,-1,-1,-1
0,1058,1470,-1,-1,-1
0,1059,3480,-1,-1,-1
0,1060,4180,-1,-1,-1
0,1061,2390,1,-1,-1
0,1062,5740,1,-1,-1
0,1063,4240,-1,-1,-1
0,1064,2880,1,-1,-1
0,1065,1590,-1,-1,-1
0,1066,12220,-1,-1,-1
0,1067,2150,-1,-1,-1
0,1068,1010,1,-1,-1
0,1069,6640,-1,-1,-1
0,1070,3360,-1,-1,-1
0,1071,5500,1,-1,-1
0,1072,750,1,-1,-1
0,1073,8300,-1,-1,-1
0,1074,5220,-1,-1,-1
0,1075,3900,-1,-1,-1
0,1076,1550,-1,-1,-1
0,1077,5730,-1,-1,-1
0,1078,5260,1,-1,-1
0,1079,870,1,-1,-1
0,1080,3630,-1,-1,-1
0,1081,690,1,-1,-1
0,1082,1600,-1,-1,-1
0,1083,5770,1,-1,-1
0,1084,1120,-1,-1,-1
0,1085,1200,1,-1,-1
0,1086,3370,-1,-1,-1
0,1087,1260,-1,-1,-1
0,1088,3980,1,-1,-1
0,1089,11930,1,-1,-1
0,1090,5420,-1,-1,-1
0,1091,6060,-1,-1,-1
0,1092,1810,1,-1,-1
0,1093,5400,-1,-1,-1
0,1094,2020,-1,-1,-1
0,1095,3330,-1,-1,-1
0,1096,14980,1,-1,-1
0,1097,1520,1,-1,-1
0,1098,1340,-1,-1,-1
0,1099,1700,1,-1,-1
0,1100,5660,-1,-1,-1
0,1101,4940,1,-1,-1
0,1102,1470,1,-1,-1
0,1103,8690,1,-1,-1
0,1104,6870,-1,-1,-1
0,1105,5460,1,-1,-1
0,1106,4110,-1,-1,-1
0,1107,1000,-1,-1,-1
0,1108,1720,1,-1,-1
0,1109,11010,1,-1,-1
0,1110,1770,-1,-1,-1
0,1111,12070,-1,-1,-1
0,1112,2630,1,-1,-1
0,1113,1590,-1,-1,-1
0,1114,6360,-1,-1,-1
0,1115,7080,-1,-1,-1
0,1116,1880,-1,-1,-1
0,1117,6250,-1,-1,-1
0,1118,2210,1,-1,-1
0,1119,11310,-1,-1,-1
0,1120,4650,-1,-1,-1
0,1121,1700,-1,-1,-1
0,1122,6290,-1,-1,-1
0,1123,11110,1,-1,-1
0,1124,11470,-1,-1,-1
0,1125,1300,1,-1,-1
0,1126,4130,-1,-1,-1
0,1127,6060,-1,-1,-1
0,1128,980,1,-1,-1
0,1129,9760,1,-1,-1
0,1130,3830,-1,-1,-1
0,1131,2870,-1,-1,-1
0,1132,5590,1,-1,-1
0,1133,960,1,-1,-1
0,1134,3340,-1,-1,-1
0,1135,2640,1,-1,-1
0,1136,2520,1,-1,-1
0,1137,990,-1,-1,-1
0,1138,2410,1,-1,-1
0,1139,6720,1,-1,-1
0,1140,1760,-1,-1,-1
0,1141,8070,-1,-1,-1
0,1142,3250,1,-1,-1
0,1143,3180,1,-1,-1
0,1144,1010,-1,-1,-1
0,1145,2970,1,-1,-1
0,1146,13970,-1,-1,-1
0,1147,9940,-1,-1,-1
0,1148,2000,-1,-1,-1
0,1149,1070,-1,-1,-1
0,1150,4290,-1,-1,-1
0,1151,3760,1,-1,-1
0,1152,1560,-1,-1,-1
0,1153,1060,-1,-1,-1
0,1154,2900,-1,-1,-1
0,1155,3870,-1,-1,-1
0,1156,2380,-1,-1,-1
0,1157,2010,1,-1,-1
0,1158,6600,-1,-1,-1
0,1159,8360,1,-1,-1
0,1160,1430,-1,-1,-1
0,1161,750,-1,-1,-1
0,1162,6230,-1,-1,-1
0,1163,3520,-1,-1,-1
0,1164,3000,-1,-1,-1
0,1165,9050,1,-1,-1
0,1166,900,1,-1,-1
0,1167,2430,1,-1,-1
0,1168,5340,1,-1,-1
0,1169,4230,-1,-1,-1
0,1170,6380,-1,-1,-1
0,1171,1460,1,-1,-1
0,1172,1640,-1,-1,-1
0,1173,1370,-1,-1,-1
0,1174,9970,1,-1,-1
0,1175,2680,-1,-1,-1
0,1176,11230,-1,-1,-1
0,1177,2650,-1,-1,-1
0,1178,3990,-1,-1,-1
0,1179,5020,-1,-1,-1
0,1180,1530,1,-1,-1
0,1181,1910,1,-1,-1
0,1182,1000,-1,-1,-1
0,1183,2480,-1,-1,-1
0,1184,9460,-1,-1,-1
0,1185,5800,-1,-1,-1
0,1186,7160,-1,-1,-1
0,1187,1100,1,-1,-1
0,1188,2550,1,-1,-1
0,1189,5280,1,-1,-1
0,1190,5420,1,-1,-1
0,1191,10450,1,-1,-1
0,1192,2730,-1,-1,-1
0,1193,4100,-1,-1,-1
0,1194,5720,1,-1,-1
0,1195,2240,1,-1,-1
0,1196,2950,-1,-1,-1
0,1197,11240,-1,-1,-1
0,1198,7740,-1,-1,-1
0,1199,1610,1,-1,-1
0,1200,6130,1,0,-1
0,1201,1920,-1,0,-1
0,1202,900,1,0,-1
0,1203,1390,-1,0,-1
0,1204,630,-1,0,-1
0,1205,4640,-1,0,-1
0,1206,1790,-1,0,-1
0,1207,8030,1,0,-1
0,1208,7230,1,0,-1
0,1209,1110,-1,0,-1
0,1210,1210,-1,0,-1
0,1211,4540,1,0,-1
0,1212,4610,-1,0,-1
0,1213,5210,1,0,-1
0,1214,6530,-1,0,-1
0,1215,1360,-1,0,-1
0,1216,10170,-1,0,-1
0,1217,1130,-1,0,-1
0,1218,7020,-1,0,-1
0,1219,4690,1,0,-1
0,1220,850,-1,0,-1
0,1221,1220,-1,0,-1
0,1222,1550,-1,0,-1
0,1223,3630,1,0,-1
0,1224,4480,-1,0,-1
0,1225,970,1,0,-1
0,1226,1640,-1,0,-1
0,1227,650,-1,0,-1
0,1228,7900,1,0,-1
0,1229,1210,1,0,-1
0,1230,4930,1,0,-1
0,1231,1740,1,0,-1
0,1232,4050,-1,0,-1
0,1233,4940,1,0,-1
0,1234,9380,-1,0,-1
0,1235,4070,1,0,-1
0,1236,3070,1,0,-1
0,1237,5660,-1,0,-1
0,1238,4140,-1,0,-1
0,1239,900,1,0,-1
0,1240,5860,1,0,-1
0,1241,12620,-1,0,-1
0,1242,3480,-1,0,-1
0,1243,5470,-1,0,-1
0,1244,2940,1,0,-1
0,1245,2530,-1,0,-1
0,1246,3300,1,0,-1
0,1247,8480,-1,0,-1
0,1248,2910,1,0,-1
0,1249,13630,-1,0,-1
0,1250,8950,1,0,-1
0,1251,3710,1,0,-1
0,1252,1850,-1,0,-1
0,1253,940,-1,0,-1
0,1254,2450,-1,0,-1
0,1255,5950,1,0,-1
0,1256,4680,1,0,-1
0,1257,980,1,0,-1
0,1258,1470,-1,0,-1
0,1259,4720,-1,0,-1
0,1260,3420,1,0,-1
0,1261,690,1,0,-1
0,1262,1160,-1,0,-1
0,1263,1860,-1,0,-1
0,1264,2260,-1,0,-1
0,1265,6240,-1,0,-1
0,1266,4510,1,0,-1
0,1267,4910,-1,0,-1
0,1268,1630,-1,0,-1
0,1269,7420,1,0,-1
0,1270,4830,-1,0,-1
0,1271,5610,-1,0,-1
0,1272,1370,-1,0,-1
0,1273,930,1,0,-1
0,1274,1880,1,0,-1
0,1275,5860,1,0,-1
0,1276,2040,-1,0,-1
0,1277,4440,-1,0,-1
0,1278,3600,1,0,-1
0,1279,690,-1,0,-1
0,1280,1280,-1,0,-1
0,1281,4950,-1,0,-1
0,1282,7250,-1,0,-1
0,1283,2890,-1,0,-1
0,1284,2810,1,0,-1
0,1285,7620,1,0,-1
0,1286,2320,1,0,-1
0,1287,1320,1,0,-1
0,1288,5510,-1,0,-1
0,1289,2900,1,0,-1
0,1290,860,1,0,-1
0,1291,4670,1,0,-1
0,1292,3400,1,0,-1
0,1293,8490,-1,0,-1
0,1294,6800,1,0,-1
0,1295,5510,-1,0,-1
0,1296,2340,-1,0,-1
0,1297,13660,1,0,-1
0,1298,3220,-1,0,-1
0,1299,5740,1,0,-1
0,1300,2320,1,0,-1
0,1301,1070,1,0,-1
0,1302,2650,-1,0,-1
0,1303,3210,-1,0,-1
0,1304,1010,-1,0,-1
0,1305,9320,-1,0,-1
0,1306,4680,-1,0,-1
0,1307,1990,-1,0,-1
0,1308,4610,-1,0,-1
0,1309,720,1,0,-1
0,1310,12440,-1,0,-1
0,1311,8800,-1,0,-1
0,1312,3440,-1,0,-1
0,1313,2350,-1,0,-1
0,1314,1430,-1,0,-1
0,1315,330,1,0,-1
0,1316,2170,1,0,-1
0,1317,4940,1,0,-1
0,1318,480,1,0,-1
0,1319,2020,1,0,-1
0,1320,11190,1,0,-1
0,1321,1850,-1,0,-1
0,1322,2010,1,0,-1
0,1323,1590,-1,0,-1
0,1324,10770,-1,0,-1
0,1325,6090,1,0,-1
0,1326,4040,1,0,-1
0,1327,2090,-1,0,-1
0,1328,5170,-1,0,-1
0,1329,8430,-1,0,-1
0,1330,1090,1,0,-1
0,1331,9020,1,0,-1
0,1332,1110,-1,0,-1
0,1333,1660,1,0,-1
0,1334,4950,-1,0,-1
0,1335,1400,1,0,-1
0,1336,4280,-1,0,-1
0,1337,940,-1,0,-1
0,1338,9930,1,0,-1
0,1339,6850,-1,0,-1
0,1340,8580,-1,0,-1
0,1341,5970,1,0,-1
0,1342,4250,1,0,-1
0,1343,2450,1,0,-1
0,1344,2540,-1,0,-1
0,1345,1440,-1,0,-1
0,1346,1570,-1,0,-1
0,1347,1480,-1,0,-1
0,1348,4440,-1,0,-1
0,1349,6820,-1,0,-1
0,1350,2210,1,0,-1
0,1351,3340,-1,0,-1
0,1352,1130,1,0,-1
0,1353,2320,-1,0,-1
0,1354,1970,-1,0,-1
0,1355,6680,1,0,-1
0,1356,1390,-1,0,-1
0,1357,8990,-1,0,-1
0,1358,4410,1,0,-1
0,1359,7200,-1,0,-1
0,1360,3800,1,0,-1
0,1361,5550,-1,0,-1
0,1362,8680,1,0,-1
0,1363,2610,1,0,-1
0,1364,1940,-1,0,-1
0,1365,3160,1,0,-1
0,1366,4720,-1,0,-1
0,1367,1140,-1,0,-1
0,1368,840,-1,0,-1
0,1369,1410,1,0,-1
0,1370,2470,1,0,-1
0,1371,4960,1,0,-1
0,1372,1680,-1,0,-1
0,1373,1390,1,0,-1
0,1374,2770,1,0,-1
0,1375,7700,1,0,-1
0,1376,2920,-1,0,-1
0,1377,5080,-1,0,-1
0,1378,10670,-1,0,-1
0,1379,4340,-1,0,-1
0,1380,12090,-1,0,-1
0,1381,1810,1,0,-1
0,1382,4890,1,0,-1
0,1383,6820,-1,0,-1
0,1384,2230,-1,0,-1
0,1385,2210,-1,0,-1
0,1386,2640,-1,0,-1
0,1387,6820,1,0,-1
0,1388,2430,-1,0,-1
0,1389,6770,-1,0,-1
0,1390,13870,-1,0,-1
0,1391,14180,-1,0,-1
0,1392,5670,-1,0,-1
0,1393,370,1,0,-1
0,1394,830,-1,0,-1
0,1395,790,1,0,-1
0,1396,5540,-1,0,-1
0,1397,5040,-1,0,-1
0,1398,4890,1,0,-1
0,1399,2620,-1,0,-1
0,1400,2450,-1,0,-1
0,1401,8460,-1,0,-1
0,1402,6930,-1,0,-1
0,1403,4060,-1,0,-1
0,1404,1680,1,0,-1
0,1405,2820,-1,0,-1
0,1406,3950,-1,0,-1
0,1407,7300,-1,0,-1
0,1408,4380,-1,0,-1
0,1409,4420,1,0,-1
0,1410,3040,1,0,-1
0,1411,2210,-1,0,-1
0,1412,1740,1,0,-1
0,1413,5740,1,0,-1
0,1414,1000,-1,0,-1
0,1415,1330,-1,0,-1
0,1416,1110,-1,0,-1
0,1417,2610,-1,0,-1
0,1418,1860,1,0,-1
0,1419,7560,-1,0,-1
0,1420,2290,1,0,-1
0,1421,2080,-1,0,-1
0,1422,1650,-1,0,-1
0,1423,6850,-1,0,-1
0,1424,4240,-1,0,-1
0,1425,1620,1,0,-1
0,1426,930,-1,0,-1
0,1427,11940,-1,0,-1
0,1428,6320,1,0,-1
0,1429,1170,-1,0,-1
0,1430,5120,-1,0,-1
0,1431,2460,1,0,-1
0,1432,2190,-1,0,-1
0,1433,2480,1,0,-1
0,1434,4660,-1,0,-1
0,1435,3140,-1,0,-1
0,1436,4270,-1,0,-1
0,1437,2350,-1,0,-1
0,1438,1200,-1,0,-1
0,1439,4460,-1,0,-1
0,1440,9550,-1,0,-1
0,1441,2630,-1,0,-1
0,1442,6690,-1,0,-1
0,1443,2500,1,0,-1
0,1444,2350,-1,0,-1
0,1445,9430,1,0,-1
0,1446,5800,1,0,-1
0,1447,1770,1,0,-1
0,1448,12510,1,0,-1
0,1449,3350,1,0,-1
0,1450,4460,1,0,-1
0,1451,2950,1,0,-1
0,1452,1310,1,0,-1
0,1453,8240,1,0,-1
0,1454,9110,-1,0,-1
0,1455,2190,-1,0,-1
0,1456,11600,1,0,-1
0,1457,2610,-1,0,-1
0,1458,1400,1,0,-1
0,1459,3120,-1,0,-1
0,1460,3470,1,0,-1
0,1461,1510,-1,0,-1
0,1462,4180,-1,0,-1
0,1463,3020,-1,0,-1
0,1464,4510,-1,0,-1
0,1465,3860,-1,0,-1
0,1466,6510,1,0,-1
0,1467,1370,-1,0,-1
0,1468,2280,-1,0,-1
0,1469,720,1,0,-1
0,1470,1630,-1,0,-1
0,1471,4500,-1,0,-1
0,1472,7070,1,0,-1
0,1473,1940,-1,0,-1
0,1474,5420,-1,0,-1
0,1475,6550,-1,0,-1
0,1476,1860,-1,0,-1
0,1477,3910,-1,0,-1
0,1478,8770,1,0,-1
0,1479,2730,1,0,-1
0,1480,1480,1,0,-1
0,1481,5150,-1,0,-1
0,1482,3660,-1,0,-1
0,1483,670,-1,0,-1
0,1484,890,1,0,-1
0,1485,840,1,0,-1
0,1486,4370,-1,0,-1
0,1487,590,-1,0,-1
0,1488,3420,1,0,-1
0,1489,5650,1,0,-1
0,1490,7050,1,0,-1
0,1491,5770,-1,0,-1
0,1492,1290,1,0,-1
0,1493,9690,1,0,-1
0,1494,6660,-1,0,-1
0,1495,3210,-1,0,-1
0,1496,4670,1,0,-1
0,1497,3710,-1,0,-1
0,1498,5510,-1,0,-1
0,1499,1300,-1,0,-1
0,1500,3350,-1,0,-1
0,1501,7270,1,0,-1
0,1502,3310,1,0,-1
0,1503,1220,-1,0,-1
0,1504,6670,-1,0,-1
0,1505,420,-1,0,-1
0,1506,640,-1,0,-1
0,1507,9280,-1,0,-1
0,1508,1210,-1,0,-1
0,1509,1320,-1,0,-1
0,1510,4680,1,0,-1
0,1511,9770,1,0,-1
0,1512,2080,1,0,-1
0,1513,1520,-1,0,-1
0,1514,690,1,0,-1
0,1515,5570,1,0,-1
0,1516,1410,1,0,-1
0,1517,4670,1,0,-1
0,1518,4940,-1,0,-1
0,1519,2840,-1,0,-1
0,1520,2190,-1,0,-1
0,1521,2540,-1,0,-1
0,1522,1840,1,0,-1
0,1523,2760,1,0,-1
0,1524,3650,-1,0,-1
0,1525,10000,-1,0,-1
0,1526,2220,-1,0,-1
0,1527,14030,-1,0,-1
0,1528,2900,-1,0,-1
0,1529,2670,-1,0,-1
0,1530,2630,-1,0,-1
0,1531,6870,1,0,-1
0,1532,6920,1,0,-1
0,1533,1400,-1,0,-1
0,1534,1330,-1,0,-1
0,1535,6030,-1,0,-1
0,1536,8160,1,0,-1
0,1537,1600,1,0,-1
0,1538,4500,-1,0,-1
0,1539,4690,1,0,-1
0,1540,1740,-1,0,-1
0,1541,940,1,0,-1
0,1542,1990,-1,0,-1
0,1543,1370,1,0,-1
0,1544,5400,-1,0,-1
0,1545,3250,-1,0,-1
0,1546,4350,1,0,-1
0,1547,2060,1,0,-1
0,1548,2040,1,0,-1
0,1549,3130,1,0,-1
0,1550,1450,-1,0,-1
0,1551,1710,-1,0,-1
0,1552,3250,1,0,-1
0,1553,8110,-1,0,-1
0,1554,4830,-1,0,-1
0,1555,2080,-1,0,-1
0,1556,13140,1,0,-1
0,1557,2980,-1,0,-1
0,1558,1260,-1,0,-1
0,1559,1150,1,0,-1
0,1560,4540,-1,0,-1
0,1561,3740,-1,0,-1
0,1562,2990,-1,0,-1
0,1563,9580,1,0,-1
0,1564,800,-1,0,-1
0,1565,2640,-1,0,-1
0,1566,1190,1,0,-1
0,1567,1660,-1,0,-1
0,1568,3060,1,0,-1
0,1569,3200,-1,0,-1
0,1570,1000,-1,0,-1
0,1571,1270,-1,0,-1
0,1572,1570,1,0,-1
0,1573,1540,-1,0,-1
0,1574,3420,-1,0,-1
0,1575,3660,-1,0,-1
0,1576,5600,1,0,-1
0,1577,2090,-1,0,-1
0,1578,2790,-1,0,-1
0,1579,3150,1,0,-1
0,1580,2220,-1,0,-1
0,1581,3220,1,0,-1
0,1582,4800,-1,0,-1
0,1583,1100,-1,0,-1
0,1584,2070,-1,0,-1
0,1585,3530,-1,0,-1
0,1586,4170,-1,0,-1
0,1587,3410,-1,0,-1
0,1588,2160,1,0,-1
0,1589,6820,-1,0,-1
0,1590,1850,-1,0,-1
0,1591,2570,1,0,-1
0,1592,2000,-1,0,-1
0,1593,11210,1,0,-1
0,1594,5470,-1,0,-1
0,1595,6930,1,0,-1
0,1596,5730,-1,0,-1
0,1597,9760,-1,0,-1
0,1598,4010,1,0,-1
0,1599,5210,-1,0,-1
0,1600,6560,-1,-1,-1
0,1601,6310,1,-1,-1
0,1602,2540,1,-1,-1
0,1603,1530,-1,-1,-1
0,1604,2260,1,-1,-1
0,1605,3160,1,-1,-1
0,1606,7240,-1,-1,-1
0,1607,1690,1,-1,-1
0,1608,7650,-1,-1,-1
0,1609,1280,-1,-1,-1
0,1610,1430,1,-1,-1
0,1611,780,1,-1,-1
0,1612,1780,1,-1,-1
0,1613,2450,1,-1,-1
0,1614,6160,-1,-1,-1
0,1615,14650,-1,-1,-1
0,1616,2900,1,-1,-1
0,1617,1280,-1,-1,-1
0,1618,640,1,-1,-1
0,1619,1900,-1,-1,-1
0,1620,3950,1,-1,-1
0,1621,2630,1,-1,-1
0,1622,15100,1,-1,-1
0,1623,1920,-1,-1,-1
0,1624,1440,-1,-1,-1
0,1625,5920,-1,-1,-1
0,1626,3990,1,-1,-1
0,1627,1020,-1,-1,-1
0,1628,2870,-1,-1,-1
0,1629,2740,-1,-1,-1
0,1630,2390,1,-1,-1
0,1631,5810,-1,-1,-1
0,1632,5730,-1,-1,-1
0,1633,6920,1,-1,-1
0,1634,6830,1,-1,-1
0,1635,4010,-1,-1,-1
0,1636,17300,1,-1,-1
0,1637,2180,1,-1,-1
0,1638,8170,1,-1,-1
0,1639,3300,-1,-1,-1
0,1640,4780,1,-1,-1
0,1641,1740,-1,-1,-1
0,1642,1940,1,-1,-1
0,1643,4230,-1,-1,-1
0,1644,3110,-1,-1,-1
0,1645,3670,-1,-1,-1
0,1646,6570,1,-1,-1
0,1647,3060,1,-1,-1
0,1648,2760,1,-1,-1
0,1649,5230,-1,-1,-1
0,1650,4500,1,-1,-1
0,1651,17480,1,-1,-1
0,1652,1130,-1,-1,-1
0,1653,6630,1,-1,-1
0,1654,7690,1,-1,-1
0,1655,5510,1,-1,-1
0,1656,5650,1,-1,-1
0,1657,3710,1,-1,-1
0,1658,2440,1,-1,-1
0,1659,7480,1,-1,-1
0,1660,1720,1,-1,-1
0,1661,11120,1,-1,-1
0,1662,510,-1,-1,-1
0,1663,4700,1,-1,-1
0,1664,7390,-1,-1,-1
0,1665,10410,-1,-1,-1
0,1666,1560,-1,-1,-1
0,1667,8580,1,-1,-1
0,1668,2240,-1,-1,-1
0,1669,1850,1,-1,-1
0,1670,1030,1,-1,-1
0,1671,6250,1,-1,-1
0,1672,10970,-1,-1,-1
0,1673,800,1,-1,-1
0,1674,3060,1,-1,-1
0,1675,3280,-1,-1,-1
0,1676,1990,-1,-1,-1
0,1677,1000,-1,-1,-1
0,1678,1530,1,-1,-1
0,1679,3770,-1,-1,-1
0,1680,5770,-1,-1,-1
0,1681,3680,1,-1,-1
0,1682,840,1,-1,-1
0,1683,1700,1,-1,-1
0,1684,3710,1,-1,-1
0,1685,3640,1,-1,-1
0,1686,960,1,-1,-1
0,1687,4650,1,-1,-1
0,1688,7410,1,-1,-1
0,1689,1210,1,-1,-1
0,1690,1550,1,-1,-1
0,1691,2670,-1,-1,-1
0,1692,3440,1,-1,-1
0,1693,2100,1,-1,-1
0,1694,3960,1,-1,-1
0,1695,3120,1,-1,-1
0,1696,6540,1,-1,-1
0,1697,1650,1,-1,-1
0,1698,8600,1,-1,-1
0,1699,2350,1,-1,-1
0,1700,3460,1,-1,-1
0,1701,3110,-1,-1,-1
0,1702,2450,1,-1,-1
0,1703,4350,1,-1,-1
0,1704,1930,-1,-1,-1
0,1705,2790,1,-1,-1
0,1706,3670,-1,-1,-1
0,1707,2840,1,-1,-1
0,1708,4640,-1,-1,-1
0,1709,1490,1,-1,-1
0,1710,8700,1,-1,-1
0,1711,10950,1,-1,-1
0,1712,2530,1,-1,-1
0,1713,2620,-1,-1,-1
0,1714,2420,-1,-1,-1
0,1715,5300,1,-1,-1
0,1716,1760,1,-1,-1
0,1717,5130,1,-1,-1
0,1718,900,1,-1,-1
0,1719,9890,1,-1,-1
0,1720,460,1,-1,-1
0,1721,12650,1,-1,-1
0,1722,2280,-1,-1,-1
0,1723,7980,1,-1,-1
0,1724,2430,-1,-1,-1
0,1725,4930,1,-1,-1
0,1726,1050,1,-1,-1
0,1727,9570,-1,-1,-1
0,1728,1150,-1,-1,-1
0,1729,6870,-1,-1,-1
0,1730,4850,-1,-1,-1
0,1731,2390,-1,-1,-1
0,1732,1040,1,-1,-1
0,1733,2950,-1,-1,-1
0,1734,6000,1,-1,-1
0,1735,2480,-1,-1,-1
0,1736,7380,1,-1,-1
0,1737,3630,1,-1,-1
0,1738,1120,1,-1,-1
0,1739,2120,1,-1,-1
0,1740,1220,1,-1,-1
0,1741,3050,1,-1,-1
0,1742,5680,1,-1,-1
0,1743,1700,-1,-1,-1
0,1744,6210,-1,-1,-1
0,1745,2580,1,-1,-1
0,1746,4920,1,-1,-1
0,1747,570,1,-1,-1
0,1748,2270,1,-1,-1
0,1749,3200,1,-1,-1
0,1750,3460,1,-1,-1
0,1751,4970,1,-1,-1
0,1752,3360,1,-1,-1
0,1753,8460,1,-1,-1
0,1754,2250,1,-1,-1
0,1755,4130,1,-1,-1
0,1756,3420,1,-1,-1
0,1757,2560,1,-1,-1
0,1758,3420,-1,-1,-1
0,1759,4200,-1,-1,-1
0,1760,5740,1,-1,-1
0,1761,1070,1,-1,-1
0,1762,5870,-1,-1,-1
0,1763,9080,1,-1,-1
0,1764,890,-1,-1,-1
0,1765,3620,1,-1,-1
0,1766,1800,1,-1,-1
0,1767,9480,-1,-1,-1
0,1768,1780,1,-1,-1
0,1769,4530,1,-1,-1
0,1770,6340,1,-1,-1
0,1771,1540,1,-1,-1
0,1772,4150,1,-1,-1
0,1773,5970,1,-1,-1
0,1774,9310,-1,-1,-1
0,1775,2020,-1,-1,-1
0,1776,5040,-1,-1,-1
0,1777,2590,1,-1,-1
0,1778,3740,-1,-1,-1
0,1779,1770,1,-1,-1
0,1780,2530,1,-1,-1
0,1781,3320,1,-1,-1
0,1782,440,1,-1,-1
0,1783,4430,1,-1,-1
0,1784,1860,1,-1,-1
0,1785,1730,1,-1,-1
0,1786,5440,-1,-1,-1
0,1787,740,-1,-1,-1
0,1788,2470,1,-1,-1
0,1789,6670,1,-1,-1
0,1790,2180,1,-1,-1
0,1791,10560,1,-1,-1
0,1792,11350,-1,-1,-1
0,1793,4980,1,-1,-1
0,1794,4940,1,-1,-1
0,1795,2710,1,-1,-1
0,1796,2870,1,-1,-1
0,1797,7710,-1,-1,-1
0,1798,1400,1,-1,-1
0,1799,5720,1,-1,-1
0,1800,3340,1,-1,-1
0,1801,2280,-1,-1,-1
0,1802,1290,1,-1,-1
0,1803,470,1,-1,-1
0,1804,7240,-1,-1,-1
0,1805,3280,-1,-1,-1
0,1806,3650,-1,-1,-1
0,1807,1120,-1,-1,-1
0,1808,5490,1,-1,-1
0,1809,6540,1,-1,-1
0,1810,530,1,-1,-1
0,1811,4630,1,-1,-1
0,1812,5760,1,-1,-1
0,1813,1410,1,-1,-1
0,1814,2600,1,-1,-1
0,1815,1760,1,-1,-1
0,1816,1170,1,-1,-1
0,1817,3840,-1,-1,-1
0,1818,4970,-1,-1,-1
0,1819,1850,1,-1,-1
0,1820,2590,1,-1,-1
0,1821,4730,1,-1,-1
0,1822,5100,-1,-1,-1
0,1823,9440,1,-1,-1
0,1824,1840,-1,-1,-1
0,1825,7430,-1,-1,-1
0,1826,2860,1,-1,-1
0,1827,1250,1,-1,-1
0,1828,6530,1,-1,-1
0,1829,4410,-1,-1,-1
0,1830,8060,-1,-1,-1
0,1831,4750,1,-1,-1
0,1832,6760,-1,-1,-1
0,1833,4800,1,-1,-1
0,1834,870,1,-1,-1
0,1835,910,1,-1,-1
0,1836,3810,1,-1,-1
0,1837,7170,-1,-1,-1
0,1838,4890,1,-1,-1
0,1839,2980,1,-1,-1
0,1840,4990,-1,-1,-1
0,1841,4130,1,-1,-1
0,1842,6290,1,-1,-1
0,1843,5490,1,-1,-1
0,1844,2870,1,-1,-1
0,1845,6190,1,-1,-1
0,1846,2680,1,-1,-1
0,1847,4050,1,-1,-1
0,1848,1810,1,-1,-1
0,1849,1480,-1,-1,-1
0,1850,16420,1,-1,-1
0,1851,1950,-1,-1,-1
0,1852,4370,1,-1,-1
0,1853,2340,-1,-1,-1
0,1854,3810,1,-1,-1
0,1855,2480,-1,-1,-1
0,1856,2610,1,-1,-1
0,1857,1550,1,-1,-1
0,1858,15510,-1,-1,-1
0,1859,800,1,-1,-1
0,1860,2300,-1,-1,-1
0,1861,1020,1,-1,-1
0,1862,5000,-1,-1,-1
0,1863,1620,-1,-1,-1
0,1864,3250,1,-1,-1
0,1865,10080,-1,-1,-1
0,1866,1110,1,-1,-1
0,1867,5320,1,-1,-1
0,1868,770,1,-1,-1
0,1869,720,1,-1,-1
0,1870,1120,1,-1,-1
0,1871,1410,1,-1,-1
0,1872,8730,-1,-1,-1
0,1873,3880,-1,-1,-1
0,1874,5120,1,-1,-1
0,1875,6480,-1,-1,-1
0,1876,4720,1,-1,-1
0,1877,880,1,-1,-1
0,1878,3240,-1,-1,-1
0,1879,2820,-1,-1,-1
0,1880,1960,-1,-1,-1
0,1881,4130,-1,-1,-1
0,1882,5750,-1,-1,-1
0,1883,860,-1,-1,-1
0,1884,2640,1,-1,-1
0,1885,2570,1,-1,-1
0,1886,16460,1,-1,-1
0,1887,4270,1,-1,-1
0,1888,7910,-1,-1,-1
0,1889,7990,-1,-1,-1
0,1890,1640,-1,-1,-1
0,1891,5110,1,-1,-1
0,1892,7350,1,-1,-1
0,1893,740,1,-1,-1
0,1894,1290,1,-1,-1
0,1895,6330,1,-1,-1
0,1896,9060,1,-1,-1
0,1897,3910,-1,-1,-1
0,1898,360,-1,-1,-1
0,1899,2240,-1,-1,-1
0,1900,5000,1,-1,-1
0,1901,380,-1,-1,-1
0,1902,3040,1,-1,-1
0,1903,4390,-1,-1,-1
0,1904,3620,-1,-1,-1
0,1905,4680,1,-1,-1
0,1906,2250,1,-1,-1
0,1907,5860,1,-1,-1
0,1908,1710,1,-1,-1
0,1909,780,1,-1,-1
0,1910,1850,-1,-1,-1
0,1911,3110,-1,-1,-1
0,1912,4260,-1,-1,-1
0,1913,1550,1,-1,-1
0,1914,4740,-1,-1,-1
0,1915,8350,1,-1,-1
0,1916,8100,1,-1,-1
0,1917,2280,1,-1,-1
0,1918,9830,1,-1,-1
0,1919,2410,1,-1,-1
0,1920,1180,1,-1,-1
0,1921,6390,1,-1,-1
0,1922,7790,1,-1,-1
0,1923,10180,1,-1,-1
0,1924,8670,-1,-1,-1
0,1925,1540,1,-1,-1
0,1926,7300,-1,-1,-1
0,1927,3170,-1,-1,-1
0,1928,1280,-1,-1,-1
0,1929,2330,1,-1,-1
0,1930,6630,-1,-1,-1
0,1931,4590,-1,-1,-1
0,1932,3940,1,-1,-1
0,1933,3370,-1,-1,-1
0,1934,11880,1,-1,-1
0,1935,700,1,-1,-1
0,1936,6110,-1,-1,-1
0,1937,1370,1,-1,-1
0,1938,1840,-1,-1,-1
0,1939,4570,1,-1,-1
0,1940,2330,1,-1,-1
0,1941,16050,1,-1,-1
0,1942,9070,-1,-1,-1
0,1943,1780,1,-1,-1
0,1944,1760,1,-1,-1
0,1945,1910,1,-1,-1
0,1946,3090,-1,-1,-1
0,1947,4980,-1,-1,-1
0,1948,8830,1,-1,-1
0,1949,3030,-1,-1,-1
0,1950,3490,-1,-1,-1
0,1951,3750,-1,-1,-1
0,1952,1650,1,-1,-1
0,1953,2630,1,-1,-1
0,1954,5710,1,-1,-1
0,1955,5610,-1,-1,-1
0,1956,3140,-1,-1,-1
0,1957,3120,1,-1,-1
0,1958,2480,1,-1,-1
0,1959,900,-1,-1,-1
0,1960,8420,1,-1,-1
0,1961,1860,-1,-1,-1
0,1962,930,-1,-1,-1
0,1963,5230,-1,-1,-1
0,1964,1140,1,-1,-1
0,1965,2420,1,-1,-1
0,1966,750,1,-1,-1
0,1967,1400,1,-1,-1
0,1968,2270,1,-1,-1
0,1969,4410,1,-1,-1
0,1970,1290,1,-1,-1
0,1971,2350,1,-1,-1
0,1972,1510,1,-1,-1
0,1973,4360,-1,-1,-1
0,1974,6490,1,-1,-1
0,1975,7980,-1,-1,-1
0,1976,1640,1,-1,-1
0,1977,1560,1,-1,-1
0,1978,3690,-1,-1,-1
0,1979,2600,-1,-1,-1
0,1980,2880,1,-1,-1
0,1981,3430,1,-1,-1
0,1982,14960,1,-1,-1
0,1983,2740,1,-1,-1
0,1984,9840,-1,-1,-1
0,1985,5390,-1,-1,-1
0,1986,2730,-1,-1,-1
0,1987,6760,-1,-1,-1
0,1988,21420,1,-1,-1
0,1989,580,1,-1,-1
0,1990,1850,-1,-1,-1
0,1991,2810,-1,-1,-1
0,1992,2810,1,-1,-1
0,1993,9550,1,-1,-1
0,1994,3180,1,-1,-1
0,1995,1650,1,-1,-1
0,1996,3260,1,-1,-1
0,1997,1730,1,-1,-1
0,1998,3910,1,-1,-1
0,1999,3490,1,-1,-1
0,2000,1230,-1,1,1
0,2001,980,-1,1,1
0,2002,540,1,1,1
0,2003,670,-1,1,1
0,2004,6360,1,1,1
0,2005,8270,1,1,1
0,2006,3160,1,1,1
0,2007,1910,1,1,1
0,2008,1740,-1,1,1
0,2009,10430,-1,1,1
0,2010,6410,1,1,1
0,2011,2360,1,1,1
0,2012,3260,-1,1,1
0,2013,4400,1,1,1
0,2014,4850,1,1,1
0,2015,3360,-1,1,1
0,2016,8070,1,1,1
0,2017,1380,1,1,1
0,2018,1090,1,1,1
0,2019,6030,1,1,1
0,2020,2050,-1,1,1
0,2021,1080,-1,1,1
0,2022,1410,-1,1,1
0,2023,4940,1,1,1
0,2024,1260,-1,1,1
0,2025,2220,-1,1,1
0,2026,1870,1,1,1
0,2027,3040,1,1,1
0,2028,4230,-1,1,1
0,2029,5940,-1,1,1
0,2030,17240,-1,1,1
0,2031,11000,1,1,1
0,2032,1630,1,1,1
0,2033,2850,-1,1,1
0,2034,8280,-1,1,1
0,2035,8210,1,1,1
0,2036,1200,1,1,1
0,2037,1870,1,1,1
0,2038,4640,-1,1,1
0,2039,5160,1,1,1
0,2040,10520,1,1,1
0,2041,2160,1,1,1
0,2042,7250,1,1,1
0,2043,7210,1,1,1
0,2044,13150,1,1,1
0,2045,1510,1,1,1
0,2046,2620,-1,1,1
0,2047,1210,1,1,1
0,2048,7400,1,1,1
0,2049,3540,1,1,1
0,2050,5860,-1,1,1
0,2051,1900,1,1,1
0,2052,1100,1,1,1
0,2053,2450,-1,1,1
0,2054,2240,-1,1,1
0,2055,1940,-1,1,1
0,2056,2160,1,1,1
0,2057,1330,1,1,1
0,2058,6040,-1,1,1
0,2059,13550,1,1,1
0,2060,3510,-1,1,1
0,2061,2360,-1,1,1
0,2062,1350,-1,1,1
0,2063,14280,-1,1,1
0,2064,4410,1,1,1
0,2065,2590,-1,1,1
0,2066,1790,1,1,1
0,2067,1730,1,1,1
0,2068,5520,1,1,1
0,2069,960,1,1,1
0,2070,2570,-1,1,1
0,2071,7110,1,1,1
0,2072,2230,1,1,1
0,2073,940,1,1,1
0,2074,9250,-1,1,1
0,2075,3610,-1,1,1
0,2076,5940,-1,1,1
0,2077,4460,-1,1,1
0,2078,6180,-1,1,1
0,2079,2660,-1,1,1
0,2080,4200,1,1,1
0,2081,1250,1,1,1
0,2082,8070,-1,1,1
0,2083,4490,-1,1,1
0,2084,2200,-1,1,1
0,2085,6430,1,1,1
0,2086,6370,1,1,1
0,2087,1800,-1,1,1
0,2088,2930,1,1,1
0,2089,2390,1,1,1
0,2090,2330,-1,1,1
0,2091,11660,-1,1,1
0,2092,5110,-1,1,1
0,2093,3970,-1,1,1
0,2094,4020,1,1,1
0,2095,7770,-1,1,1
0,2096,840,-1,1,1
0,2097,18840,1,1,1
0,2098,6170,1,1,1
0,2099,7700,1,1,1
0,2100,2820,1,1,1
0,2101,1420,1,1,1
0,2102,2480,1,1,1
0,2103,2170,1,1,1
0,2104,1380,1,1,1
0,2105,950,1,1,1
0,2106,3240,1,1,1
0,2107,4990,-1,1,1
0,2108,3150,1,1,1
0,2109,1980,-1,1,1
0,2110,870,-1,1,1
0,2111,3050,1,1,1
0,2112,5810,1,1,1
0,2113,1860,1,1,1
0,2114,2430,1,1,1
0,2115,2820,1,1,1
0,2116,10890,-1,1,1
0,2117,8120,-1,1,1
0,2118,12340,-1,1,1
0,2119,3040,1,1,1
0,2120,3980,1,1,1
0,2121,1040,1,1,1
0,2122,1840,-1,1,1
0,2123,2530,1,1,1
0,2124,4900,-1,1,1
0,2125,3640,1,1,1
0,2126,5430,1,1,1
0,2127,1560,-1,1,1
0,2128,4340,-1,1,1
0,2129,8990,-1,1,1
0,2130,2300,1,1,1
0,2131,2870,-1,1,1
0,2132,2350,1,1,1
0,2133,4970,-1,1,1
0,2134,6710,1,1,1
0,2135,5400,-1,1,1
0,2136,3250,1,1,1
0,2137,3120,1,1,1
0,2138,580,1,1,1
0,2139,820,1,1,1
0,2140,1160,-1,1,1
0,2141,4800,1,1,1
0,2142,4430,-1,1,1
0,2143,3180,-1,1,1
0,2144,2700,1,1,1
0,2145,1760,-1,1,1
0,2146,1520,1,1,1
0,2147,960,1,1,1
0,2148,1440,1,1,1
0,2149,3050,1,1,1
0,2150,2010,1,1,1
0,2151,2660,1,1,1
0,2152,7880,1,1,1
0,2153,5030,-1,1,1
0,2154,5150,-1,1,1
0,2155,9430,-1,1,1
0,2156,8140,1,1,1
0,2157,2500,1,1,1
0,2158,2800,1,1,1
0,2159,10590,-1,1,1
0,2160,840,1,1,1
0,2161,5360,-1,1,1
0,2162,760,-1,1,1
0,2163,12920,-1,1,1
0,2164,1470,-1,1,1
0,2165,4010,1,1,1
0,2166,1540,-1,1,1
0,2167,1580,-1,1,1
0,2168,4040,-1,1,1
0,2169,1890,-1,1,1
0,2170,3670,-1,1,1
0,2171,19350,1,1,1
0,2172,3170,1,1,1
0,2173,2880,-1,1,1
0,2174,480,-1,1,1
0,2175,1150,1,1,1
0,2176,4710,1,1,1
0,2177,2330,-1,1,1
0,2178,960,1,1,1
0,2179,1800,-1,1,1
0,2180,1780,1,1,1
0,2181,6960,-1,1,1
0,2182,3560,1,1,1
0,2183,5950,1,1,1
0,2184,6190,-1,1,1
0,2185,3410,1,1,1
0,2186,1870,1,1,1
0,2187,2200,-1,1,1
0,2188,6080,-1,1,1
0,2189,7810,-1,1,1
0,2190,2880,-1,1,1
0,2191,1350,1,1,1
0,2192,8940,1,1,1
0,2193,1640,-1,1,1
0,2194,3530,-1,1,1
0,2195,2360,-1,1,1
0,2196,4410,-1,1,1
0,2197,5650,-1,1,1
0,2198,4450,-1,1,1
0,2199,1920,-1,1,1
0,2200,6510,1,1,1
0,2201,5800,1,1,1
0,2202,1420,1,1,1
0,2203,910,1,1,1
0,2204,7680,-1,1,1
0,2205,5010,1,1,1
0,2206,3640,-1,1,1
0,2207,7410,1,1,1
0,2208,3290,-1,1,1
0,2209,4120,-1,1,1
0,2210,3670,-1,1,1
0,2211,3570,1,1,1
0,2212,6350,-1,1,1
0,2213,2140,1,1,1
0,2214,1590,-1,1,1
0,2215,8390,1,1,1
0,2216,13210,-1,1,1
0,2217,1200,1,1,1
0,2218,1640,1,1,1
0,2219,4200,1,1,1
0,2220,2060,-1,1,1
0,2221,4620,1,1,1
0,2222,1580,1,1,1
0,2223,1800,-1,1,1
0,2224,5170,1,1,1
0,2225,1110,1,1,1
0,2226,6090,-1,1,1
0,2227,7030,-1,1,1
0,2228,8100,1,1,1
0,2229,12240,-1,1,1
0,2230,5500,-1,1,1
0,2231,1590,1,1,1
0,2232,1670,1,1,1
0,2233,6060,1,1,1
0,2234,2240,-1,1,1
0,2235,6420,-1,1,1
0,2236,2730,1,1,1
0,2237,840,-1,1,1
0,2238,2640,-1,1,1
0,2239,1180,-1,1,1
0,2240,760,1,1,1
0,2241,6710,-1,1,1
0,2242,1360,1,1,1
0,2243,5800,1,1,1
0,2244,3770,-1,1,1
0,2245,1810,-1,1,1
0,2246,3670,1,1,1
0,2247,2380,-1,1,1
0,2248,9490,1,1,1
0,2249,13450,1,1,1
0,2250,8210,1,1,1
0,2251,4160,1,1,1
0,2252,2640,1,1,1
0,2253,6190,1,1,1
0,2254,2140,1,1,1
0,2255,2130,1,1,1
0,2256,1600,-1,1,1
0,2257,3590,-1,1,1
0,2258,3810,-1,1,1
0,2259,2470,1,1,1
0,2260,3480,1,1,1
0,2261,2270,1,1,1
0,2262,1650,-1,1,1
0,2263,1360,1,1,1
0,2264,5900,1,1,1
0,2265,7050,1,1,1
0,2266,7870,1,1,1
0,2267,9920,-1,1,1
0,2268,2720,-1,1,1
0,2269,7480,1,1,1
0,2270,2750,1,1,1
0,2271,3060,-1,1,1
0,2272,10420,1,1,1
0,2273,420,1,1,1
0,2274,5680,1,1,1
0,2275,2190,-1,1,1
0,2276,4970,-1,1,1
0,2277,16120,1,1,1
0,2278,3610,1,1,1
0,2279,1240,1,1,1
0,2280,4800,1,1,1
0,2281,9760,-1,1,1
0,2282,1640,-1,1,1
0,2283,2810,1,1,1
0,2284,12880,-1,1,1
0,2285,690,1,1,1
0,2286,10190,1,1,1
0,2287,1390,-1,1,1
0,2288,1190,1,1,1
0,2289,2200,1,1,1
0,2290,1030,1,1,1
0,2291,4230,-1,1,1
0,2292,1330,1,1,1
0,2293,6120,1,1,1
0,2294,1420,1,1,1
0,2295,5720,1,1,1
0,2296,10310,-1,1,1
0,2297,780,1,1,1
0,2298,3340,1,1,1
0,2299,1430,1,1,1
0,2300,3400,1,1,1
0,2301,2440,-1,1,1
0,2302,1010,1,1,1
0,2303,1070,-1,1,1
0,2304,4850,1,1,1
0,2305,5300,1,1,1
0,2306,2500,1,1,1
0,2307,4680,-1,1,1
0,2308,3690,1,1,1
0,2309,2650,-1,1,1
0,2310,15490,1,1,1
0,2311,3800,1,1,1
0,2312,3490,-1,1,1
0,2313,550,1,1,1
0,2314,2000,1,1,1
0,2315,8270,-1,1,1
0,2316,3970,-1,1,1
0,2317,10180,-1,1,1
0,2318,10190,1,1,1
0,2319,1030,-1,1,1
0,2320,2280,-1,1,1
0,2321,2820,-1,1,1
0,2322,1190,-1,1,1
0,2323,1290,-1,1,1
0,2324,1620,-1,1,1
0,2325,3910,-1,1,1
0,2326,4210,1,1,1
0,2327,5220,1,1,1
0,2328,2770,1,1,1
0,2329,8130,-1,1,1
0,2330,11470,-1,1,1
0,2331,3370,-1,1,1
0,2332,1950,1,1,1
0,2333,830,-1,1,1
0,2334,6960,1,1,1
0,2335,1890,-1,1,1
0,2336,4920,-1,1,1
0,2337,7370,1,1,1
0,2338,1210,1,1,1
0,2339,640,-1,1,1
0,2340,11950,-1,1,1
0,2341,4780,1,1,1
0,2342,1390,1,1,1
0,2343,11210,1,1,1
0,2344,6190,1,1,1
0,2345,2190,-1,1,1
0,2346,10690,1,1,1
0,2347,1540,-1,1,1
0,2348,9320,1,1,1
0,2349,1600,1,1,1
0,2350,2450,-1,1,1
0,2351,18350,-1,1,1
0,2352,860,1,1,1
0,2353,2070,-1,1,1
0,2354,7240,-1,1,1
0,2355,8420,1,1,1
0,2356,3700,1,1,1
0,2357,5830,1,1,1
0,2358,5180,1,1,1
0,2359,1670,1,1,1
0,2360,5920,1,1,1
0,2361,6180,1,1,1
0,2362,2270,-1,1,1
0,2363,1650,1,1,1
0,2364,480,-1,1,1
0,2365,500,-1,1,1
0,2366,2650,1,1,1
0,2367,1200,1,1,1
0,2368,1680,1,1,1
0,2369,460,1,1,1
0,2370,3710,1,1,1
0,2371,2310,-1,1,1
0,2372,5010,-1,1,1
0,2373,13890,1,1,1
0,2374,2290,-1,1,1
0,2375,7270,1,1,1
0,2376,10120,-1,1,1
0,2377,3200,1,1,1
0,2378,4630,-1,1,1
0,2379,1820,-1,1,1
0,2380,2130,1,1,1
0,2381,1510,-1,1,1
0,2382,1730,1,1,1
0,2383,1850,-1,1,1
0,2384,5230,-1,1,1
0,2385,10280,1,1,1
0,2386,5870,1,1,1
0,2387,570,-1,1,1
0,2388,6430,1,1,1
0,2389,1440,-1,1,1
0,2390,3160,1,1,1
0,2391,6800,-1,1,1
0,2392,2060,1,1,1
0,2393,3880,-1,1,1
0,2394,1680,1,1,1
0,2395,3820,1,1,1
0,2396,1850,1,1,1
0,2397,1480,1,1,1
0,2398,1880,-1,1,1
0,2399,3420,1,1,1
0,2400,4110,-1,0,0
0,2401,7250,1,0,0
0,2402,1720,1,0,0
0,2403,3330,-1,0,0
0,2404,4720,-1,0,0
0,2405,1970,-1,0,0
0,2406,11750,-1,0,0
0,2407,780,-1,0,0
0,2408,1950,-1,0,0
0,2409,1050,1,0,0
0,2410,830,1,0,0
0,2411,2690,-1,0,0
0,2412,2120,-1,0,0
0,2413,3220,1,0,0
0,2414,3920,-1,0,0
0,2415,4990,1,0,0
0,2416,1160,-1,0,0
0,2417,1660,1,0,0
0,2418,570,-1,0,0
0,2419,2990,1,0,0
0,2420,1120,-1,0,0
0,2421,10760,1,0,0
0,2422,1980,1,0,0
0,2423,8970,-1,0,0
0,2424,4030,1,0,0
0,2425,2320,1,0,0
0,2426,3900,1,0,0
0,2427,6620,1,0,0
0,2428,1150,1,0,0
0,2429,2650,1,0,0
0,2430,4390,1,0,0
0,2431,1160,-1,0,0
0,2432,7350,1,0,0
0,2433,2280,-1,0,0
0,2434,6420,-1,0,0
0,2435,1120,-1,0,0
0,2436,8820,-1,0,0
0,2437,4350,1,0,0
0,2438,3690,-1,0,0
0,2439,1340,1,0,0
0,2440,12770,1,0,0
0,2441,1720,1,0,0
0,2442,4860,-1,0,0
0,2443,2100,1,0,0
0,2444,1090,1,0,0
0,2445,9250,1,0,0
0,2446,750,-1,0,0
0,2447,1840,-1,0,0
0,2448,2410,1,0,0
0,2449,2680,-1,0,0
0,2450,4840,1,0,0
0,2451,2100,1,0,0
0,2452,9840,-1,0,0
0,2453,23080,1,0,0
0,2454,670,1,0,0
0,2455,770,-1,0,0
0,2456,3750,1,0,0
0,2457,6050,-1,0,0
0,2458,1800,-1,0,0
0,2459,2170,1,0,0
0,2460,3890,1,0,0
0,2461,3700,-1,0,0
0,2462,3480,1,0,0
0,2463,11680,1,0,0
0,2464,1980,1,0,0
0,2465,2350,1,0,0
0,2466,1440,1,0,0
0,2467,2730,1,0,0
0,2468,7640,-1,0,0
0,2469,4480,-1,0,0
0,2470,4740,-1,0,0
0,2471,2080,-1,0,0
0,2472,7760,1,0,0
0,2473,3160,1,0,0
0,2474,5500,1,0,0
0,2475,4020,-1,0,0
0,2476,1220,1,0,0
0,2477,1970,-1,0,0
0,2478,1660,1,0,0
0,2479,6030,1,0,0
0,2480,1950,1,0,0
0,2481,2590,1,0,0
0,2482,1870,1,0,0
0,2483,10690,-1,0,0
0,2484,2180,-1,0,0
0,2485,4740,-1,0,0
0,2486,1500,-1,0,0
0,2487,1220,-1,0,0
0,2488,1690,-1,0,0
0,2489,2050,1,0,0
0,2490,2010,-1,0,0
0,2491,2250,1,0,0
0,2492,11590,1,0,0
0,2493,2510,1,0,0
0,2494,4570,1,0,0
0,2495,5920,1,0,0
0,2496,1690,-1,0,0
0,2497,2340,-1,0,0
0,2498,1060,-1,0,0
0,2499,8430,1,0,0
0,2500,7230,1,0,0
0,2501,3940,-1,0,0
0,2502,2500,1,0,0
0,2503,5160,1,0,0
0,2504,12970,1,0,0
0,2505,1750,1,0,0
0,2506,2000,1,0,0
0,2507,2860,-1,0,0
0,2508,3500,-1,0,0
0,2509,1810,1,0,0
0,2510,8610,-1,0,0
0,2511,2300,1,0,0
0,2512,2720,1,0,0
0,2513,17100,-1,0,0
0,2514,2380,1,0,0
0,2515,4970,1,0,0
0,2516,5490,-1,0,0
0,2517,920,1,0,0
0,2518,2760,1,0,0
0,2519,1610,-1,0,0
0,2520,1360,1,0,0
0,2521,1220,-1,0,0
0,2522,6090,-1,0,0
0,2523,8580,-1,0,0
0,2524,840,1,0,0
0,2525,6480,-1,0,0
0,2526,1730,-1,0,0
0,2527,2610,1,0,0
0,2528,8180,1,0,0
0,2529,570,-1,0,0
0,2530,4360,-1,0,0
0,2531,7680,-1,0,0
0,2532,13160,1,0,0
0,2533,3960,-1,0,0
0,2534,1070,1,0,0
0,2535,3090,1,0,0
0,2536,6920,-1,0,0
0,2537,14180,1,0,0
0,2538,3100,-1,0,0
0,2539,2950,-1,0,0
0,2540,3250,1,0,0
0,2541,3910,1,0,0
0,2542,6790,1,0,0
0,2543,6420,1,0,0
0,2544,4810,1,0,0
0,2545,2850,-1,0,0
0,2546,11480,-1,0,0
0,2547,2200,-1,0,0
0,2548,3070,-1,0,0
0,2549,2240,1,0,0
0,2550,1290,-1,0,0
0,2551,4290,-1,0,0
0,2552,6530,1,0,0
0,2553,1840,1,0,0
0,2554,4450,1,0,0
0,2555,1130,-1,0,0
0,2556,1390,-1,0,0
0,2557,1150,-1,0,0
0,2558,6100,-1,0,0
0,2559,7170,1,0,0
0,2560,1460,1,0,0
0,2561,3800,-1,0,0
0,2562,1280,1,0,0
0,2563,14000,1,0,0
0,2564,12100,1,0,0
0,2565,4910,1,0,0
0,2566,1750,-1,0,0
0,2567,1190,-1,0,0
0,2568,1410,1,0,0
0,2569,1390,1,0,0
0,2570,1790,-1,0,0
0,2571,2720,-1,0,0
0,2572,1050,-1,0,0
0,2573,1700,1,0,0
0,2574,3860,1,0,0
0,2575,6500,1,0,0
0,2576,6690,1,0,0
0,2577,2710,-1,0,0
0,2578,2680,-1,0,0
0,2579,8700,1,0,0
0,2580,6950,-1,0,0
0,2581,890,1,0,0
0,2582,4390,-1,0,0
0,2583,430,1,0,0
0,2584,740,1,0,0
0,2585,3230,1,0,0
0,2586,6210,-1,0,0
0,2587,4990,-1,0,0
0,2588,1300,-1,0,0
0,2589,9200,1,0,0
0,2590,4080,1,0,0
0,2591,4240,1,0,0
0,2592,8190,1,0,0
0,2593,6120,1,0,0
0,2594,2870,1,0,0
0,2595,1790,-1,0,0
0,2596,800,1,0,0
0,2597,7400,-1,0,0
0,2598,3290,-1,0,0
0,2599,4450,1,0,0
0,2600,7050,-1,0,0
0,2601,1520,1,0,0
0,2602,9090,-1,0,0
0,2603,6480,1,0,0
0,2604,1220,1,0,0
0,2605,4560,1,0,0
0,2606,1800,1,0,0
0,2607,1560,-1,0,0
0,2608,3580,1,0,0
0,2609,4490,-1,0,0
0,2610,3520,1,0,0
0,2611,2070,1,0,0
0,2612,8020,-1,0,0
0,2613,1140,-1,0,0
0,2614,2120,1,0,0
0,2615,1040,-1,0,0
0,2616,3480,1,0,0
0,2617,3230,1,0,0
0,2618,1870,1,0,0
0,2619,1690,1,0,0
0,2620,4640,-1,0,0
0,2621,3660,1,0,0
0,2622,9520,-1,0,0
0,2623,7410,-1,0,0
0,2624,2200,-1,0,0
0,2625,470,1,0,0
0,2626,6420,1,0,0
0,2627,3520,1,0,0
0,2628,1410,-1,0,0
0,2629,7900,-1,0,0
0,2630,8200,1,0,0
0,2631,7360,1,0,0
0,2632,500,1,0,0
0,2633,2850,-1,0,0
0,2634,14660,1,0,0
0,2635,1640,1,0,0
0,2636,1230,-1,0,0
0,2637,1910,1,0,0
0,2638,5140,-1,0,0
0,2639,2740,-1,0,0
0,2640,1800,1,0,0
0,2641,2780,1,0,0
0,2642,4050,1,0,0
0,2643,710,1,0,0
0,2644,2940,-1,0,0
0,2645,3310,1,0,0
0,2646,3990,1,0,0
0,2647,5340,1,0,0
0,2648,1500,1,0,0
0,2649,3270,1,0,0
0,2650,1940,-1,0,0
0,2651,7940,1,0,0
0,2652,6540,1,0,0
0,2653,2600,1,0,0
0,2654,4690,-1,0,0
0,2655,2810,-1,0,0
0,2656,1800,-1,0,0
0,2657,910,-1,0,0
0,2658,990,-1,0,0
0,2659,5440,-1,0,0
0,2660,1710,1,0,0
0,2661,1870,1,0,0
0,2662,2810,-1,0,0
0,2663,1730,1,0,0
0,2664,3930,1,0,0
0,2665,6050,1,0,0
0,2666,830,1,0,0
0,2667,6230,1,0,0
0,2668,3730,-1,0,0
0,2669,8350,-1,0,0
0,2670,14480,-1,0,0
0,2671,1020,1,0,0
0,2672,9500,1,0,0
0,2673,7400,1,0,0
0,2674,7180,-1,0,0
0,2675,12890,1,0,0
0,2676,1050,1,0,0
0,2677,1730,-1,0,0
0,2678,4730,1,0,0
0,2679,2350,1,0,0
0,2680,5750,1,0,0
0,2681,2710,-1,0,0
0,2682,9650,-1,0,0
0,2683,3330,-1,0,0
0,2684,1440,1,0,0
0,2685,2910,1,0,0
0,2686,1130,-1,0,0
0,2687,7000,1,0,0
0,2688,3760,1,0,0
0,2689,12340,-1,0,0
0,2690,11960,1,0,0
0,2691,2270,-1,0,0
0,2692,3440,1,0,0
0,2693,8590,1,0,0
0,2694,2050,1,0,0
0,2695,3090,-1,0,0
0,2696,1030,1,0,0
0,2697,8910,-1,0,0
0,2698,4020,1,0,0
0,2699,1820,1,0,0
0,2700,1750,1,0,0
0,2701,1550,1,0,0
0,2702,480,1,0,0
0,2703,4040,1,0,0
0,2704,6860,-1,0,0
0,2705,8630,-1,0,0
0,2706,810,1,0,0
0,2707,2470,1,0,0
0,2708,2080,-1,0,0
0,2709,3320,-1,0,0
0,2710,1850,1,0,0
0,2711,3940,-1,0,0
0,2712,2190,1,0,0
0,2713,1340,-1,0,0
0,2714,4020,-1,0,0
0,2715,580,1,0,0
0,2716,890,1,0,0
0,2717,2660,-1,0,0
0,2718,7900,1,0,0
0,2719,1870,-1,0,0
0,2720,3720,1,0,0
0,2721,5320,-1,0,0
0,2722,1390,-1,0,0
0,2723,1320,1,0,0
0,2724,5700,-1,0,0
0,2725,4130,-1,0,0
0,2726,1000,1,0,0
0,2727,930,-1,0,0
0,2728,950,1,0,0
0,2729,9230,1,0,0
0,2730,3750,1,0,0
0,2731,11490,1,0,0
0,2732,2130,1,0,0
0,2733,2440,-1,0,0
0,2734,6070,1,0,0
0,2735,1450,1,0,0
0,2736,3840,-1,0,0
0,2737,7410,-1,0,0
0,2738,3610,-1,0,0
0,2739,2820,-1,0,0
0,2740,3000,1,0,0
0,2741,3400,1,0,0
0,2742,5680,1,0,0
0,2743,580,-1,0,0
0,2744,2370,-1,0,0
0,2745,5540,1,0,0
0,2746,3280,1,0,0
0,2747,4790,1,0,0
0,2748,2610,1,0,0
0,2749,3720,1,0,0
0,2750,1130,1,0,0
0,2751,5050,1,0,0
0,2752,1560,1,0,0
0,2753,1160,-1,0,0
0,2754,1450,-1,0,0
0,2755,2620,-1,0,0
0,2756,2570,-1,0,0
0,2757,1690,-1,0,0
0,2758,1020,1,0,0
0,2759,2460,-1,0,0
0,2760,4980,-1,0,0
0,2761,4420,1,0,0
0,2762,2830,-1,0,0
0,2763,2220,-1,0,0
0,2764,2390,1,0,0
0,2765,1960,1,0,0
0,2766,3340,1,0,0
0,2767,480,-1,0,0
0,2768,11120,1,0,0
0,2769,1920,1,0,0
0,2770,1380,1,0,0
0,2771,1380,1,0,0
0,2772,5460,1,0,0
0,2773,9030,1,0,0
0,2774,1660,-1,0,0
0,2775,1170,-1,0,0
0,2776,6540,-1,0,0
0,2777,8620,-1,0,0
0,2778,4570,-1,0,0
0,2779,13110,1,0,0
0,2780,1690,-1,0,0
0,2781,1180,-1,0,0
0,2782,2050,1,0,0
0,2783,1260,-1,0,0
0,2784,3800,-1,0,0
0,2785,2000,-1,0,0
0,2786,1330,-1,0,0
0,2787,1420,1,0,0
0,2788,1200,1,0,0
0,2789,4610,1,0,0
0,2790,1280,1,0,0
0,2791,2110,-1,0,0
0,2792,2130,-1,0,0
0,2793,6020,1,0,0
0,2794,320,-1,0,0
0,2795,6030,1,0,0
0,2796,1920,1,0,0
0,2797,5390,-1,0,0
0,2798,2410,1,0,0
0,2799,7140,-1,0,0
0,2800,7240,-1,1,0
0,2801,2830,-1,1,0
0,2802,7640,-1,1,0
0,2803,4800,-1,1,0
0,2804,4740,-1,1,0
0,2805,11430,-1,1,0
0,2806,780,-1,1,0
0,2807,4070,-1,1,0
0,2808,2340,-1,1,0
0,2809,9290,-1,1,0
0,2810,3890,-1,1,0
0,2811,1300,1,1,0
0,2812,3130,-1,1,0
0,2813,4330,-1,1,0
0,2814,11530,-1,1,0
0,2815,3780,-1,1,0
0,2816,460,-1,1,0
0,2817,5770,1,1,0
0,2818,2330,1,1,0
0,2819,8650,-1,1,0
0,2820,3630,-1,1,0
0,2821,3680,-1,1,0
0,2822,1490,-1,1,0
0,2823,7080,1,1,0
0,2824,5900,-1,1,0
0,2825,8940,1,1,0
0,2826,3510,-1,1,0
0,2827,1850,-1,1,0
0,2828,5770,-1,1,0
0,2829,2720,-1,1,0
0,2830,1730,-1,1,0
0,2831,1230,-1,1,0
0,2832,4050,-1,1,0
0,2833,2880,-1,1,0
0,2834,5990,-1,1,0
0,2835,820,-1,1,0
0,2836,6770,-1,1,0
0,2837,1470,-1,1,0
0,2838,2350,-1,1,0
0,2839,10420,-1,1,0
0,2840,3480,1,1,0
0,2841,1740,-1,1,0
0,2842,3110,-1,1,0
0,2843,1030,-1,1,0
0,2844,6360,-1,1,0
0,2845,6070,-1,1,0
0,2846,5020,-1,1,0
0,2847,920,1,1,0
0,2848,900,1,1,0
0,2849,820,-1,1,0
0,2850,8840,-1,1,0
0,2851,3720,-1,1,0
0,2852,430,-1,1,0
0,2853,1490,-1,1,0
0,2854,620,-1,1,0
0,2855,1800,-1,1,0
0,2856,9770,-1,1,0
0,2857,9340,-1,1,0
0,2858,1360,-1,1,0
0,2859,6790,-1,1,0
0,2860,1350,-1,1,0
0,2861,3920,1,1,0
0,2862,6210,-1,1,0
0,2863,11690,1,1,0
0,2864,1010,1,1,0
0,2865,2880,-1,1,0
0,2866,3160,-1,1,0
0,2867,2950,1,1,0
0,2868,1470,-1,1,0
0,2869,12190,-1,1,0
0,2870,3710,-1,1,0
0,2871,380,-1,1,0
0,2872,1950,-1,1,0
0,2873,1760,-1,1,0
0,2874,430,-1,1,0
0,2875,3330,-1,1,0
0,2876,3410,-1,1,0
0,2877,8900,1,1,0
0,2878,5450,1,1,0
0,2879,3310,-1,1,0
0,2880,4190,-1,1,0
0,2881,4470,-1,1,0
0,2882,870,-1,1,0
0,2883,1320,-1,1,0
0,2884,1230,1,1,0
0,2885,2820,-1,1,0
0,2886,3990,-1,1,0
0,2887,1670,-1,1,0
0,2888,2140,-1,1,0
0,2889,1830,1,1,0
0,2890,17520,-1,1,0
0,2891,570,1,1,0
0,2892,580,1,1,0
0,2893,3150,1,1,0
0,2894,1520,-1,1,0
0,2895,7200,1,1,0
0,2896,6050,1,1,0
0,2897,1830,-1,1,0
0,2898,5960,-1,1,0
0,2899,840,-1,1,0
0,2900,2840,-1,1,0
0,2901,500,1,1,0
0,2902,6660,-1,1,0
0,2903,3430,-1,1,0
0,2904,2360,1,1,0
0,2905,3000,-1,1,0
0,2906,1570,-1,1,0
0,2907,1720,-1,1,0
0,2908,4500,-1,1,0
0,2909,3970,1,1,0
0,2910,3680,-1,1,0
0,2911,3950,-1,1,0
0,2912,5860,-1,1,0
0,2913,1660,1,1,0
0,2914,3720,1,1,0
0,2915,1540,1,1,0
0,2916,3390,-1,1,0
0,2917,4200,1,1,0
0,2918,2550,-1,1,0
0,2919,1640,1,1,0
0,2920,2540,-1,1,0
0,2921,1990,-1,1,0
0,2922,1610,-1,1,0
0,2923,9700,-1,1,0
0,2924,4530,-1,1,0
0,2925,2390,-1,1,0
0,2926,1960,-1,1,0
0,2927,1320,-1,1,0
0,2928,1490,-1,1,0
0,2929,930,-1,1,0
0,2930,4170,1,1,0
0,2931,2360,-1,1,0
0,2932,3070,-1,1,0
0,2933,4200,1,1,0
0,2934,1760,-1,1,0
0,2935,2280,1,1,0
0,2936,5620,-1,1,0
0,2937,2910,-1,1,0
0,2938,8820,1,1,0
0,2939,8470,-1,1,0
0,2940,3480,-1,1,0
0,2941,5480,-1,1,0
0,2942,1200,-1,1,0
0,2943,5790,-1,1,0
0,2944,910,1,1,0
0,2945,10580,-1,1,0
0,2946,4980,1,1,0
0,2947,16620,-1,1,0
0,2948,7360,1,1,0
0,2949,4280,-1,1,0
0,2950,4870,1,1,0
0,2951,4680,-1,1,0
0,2952,1420,1,1,0
0,2953,1420,-1,1,0
0,2954,7980,-1,1,0
0,2955,2420,1,1,0
0,2956,790,-1,1,0
0,2957,9100,-1,1,0
0,2958,5580,-1,1,0
0,2959,1690,-1,1,0
0,2960,4370,1,1,0
0,2961,3880,-1,1,0
0,2962,2490,1,1,0
0,2963,1820,-1,1,0
0,2964,4870,-1,1,0
0,2965,2730,-1,1,0
0,2966,700,-1,1,0
0,2967,1610,-1,1,0
0,2968,3050,-1,1,0
0,2969,1350,-1,1,0
0,2970,1850,-1,1,0
0,2971,2370,-1,1,0
0,2972,6790,-1,1,0
0,2973,2810,-1,1,0
0,2974,1680,-1,1,0
0,2975,520,1,1,0
0,2976,2290,-1,1,0
0,2977,2770,1,1,0
0,2978,4800,-1,1,0
0,2979,1070,-1,1,0
0,2980,9370,1,1,0
0,2981,5490,-1,1,0
0,2982,2140,1,1,0
0,2983,2120,1,1,0
0,2984,11320,-1,1,0
0,2985,7870,1,1,0
0,2986,2690,-1,1,0
0,2987,1610,-1,1,0
0,2988,1400,1,1,0
0,2989,2090,-1,1,0
0,2990,1780,-1,1,0
0,2991,1720,-1,1,0
0,2992,9280,-1,1,0
0,2993,6570,-1,1,0
0,2994,1030,1,1,0
0,2995,2340,-1,1,0
0,2996,3260,-1,1,0
0,2997,2490,-1,1,0
0,2998,1530,-1,1,0
0,2999,3570,1,1,0
0,3000,2600,1,1,0
0,3001,4640,-1,1,0
0,3002,1560,-1,1,0
0,3003,2070,-1,1,0
0,3004,5160,-1,1,0
0,3005,5080,-1,1,0
0,3006,1570,-1,1,0
0,3007,3000,-1,1,0
0,3008,7940,-1,1,0
0,3009,1920,-1,1,0
0,3010,3670,-1,1,0
0,3011,2440,1,1,0
0,3012,10160,-1,1,0
0,3013,6830,-1,1,0
0,3014,3140,-1,1,0
0,3015,1610,1,1,0
0,3016,4720,-1,1,0
0,3017,3640,-1,1,0
0,3018,4840,1,1,0
0,3019,3280,1,1,0
0,3020,10650,-1,1,0
0,3021,8690,-1,1,0
0,3022,960,-1,1,0
0,3023,2050,-1,1,0
0,3024,2360,-1,1,0
0,3025,1330,1,1,0
0,3026,2150,1,1,0
0,3027,2200,-1,1,0
0,3028,1940,-1,1,0
0,3029,3870,-1,1,0
0,3030,5750,-1,1,0
0,3031,1310,-1,1,0
0,3032,2840,-1,1,0
0,3033,2000,-1,1,0
0,3034,2340,-1,1,0
0,3035,1880,-1,1,0
0,3036,3490,1,1,0
0,3037,3700,-1,1,0
0,3038,3100,-1,1,0
0,3039,5770,1,1,0
0,3040,3480,-1,1,0
0,3041,620,-1,1,0
0,3042,3640,-1,1,0
0,3043,7310,-1,1,0
0,3044,1170,-1,1,0
0,3045,1690,-1,1,0
0,3046,4670,-1,1,0
0,3047,1500,1,1,0
0,3048,2410,-1,1,0
0,3049,740,1,1,0
0,3050,2150,-1,1,0
0,3051,2690,1,1,0
0,3052,7370,-1,1,0
0,3053,6520,1,1,0
0,3054,2630,1,1,0
0,3055,5640,-1,1,0
0,3056,2920,-1,1,0
0,3057,1860,-1,1,0
0,3058,910,-1,1,0
0,3059,9870,-1,1,0
0,3060,970,-1,1,0
0,3061,550,1,1,0
0,3062,1020,-1,1,0
0,3063,2530,-1,1,0
0,3064,5110,-1,1,0
0,3065,5740,-1,1,0
0,3066,4640,-1,1,0
0,3067,7340,-1,1,0
0,3068,1270,1,1,0
0,3069,710,-1,1,0
0,3070,2770,1,1,0
0,3071,1550,-1,1,0
0,3072,5550,-1,1,0
0,3073,2050,1,1,0
0,3074,1920,-1,1,0
0,3075,5480,-1,1,0
0,3076,1030,-1,1,0
0,3077,2050,-1,1,0
0,3078,4430,-1,1,0
0,3079,2910,-1,1,0
0,3080,2450,-1,1,0
0,3081,2250,-1,1,0
0,3082,4250,-1,1,0
0,3083,1860,-1,1,0
0,3084,3870,-1,1,0
0,3085,2950,-1,1,0
0,3086,1330,-1,1,0
0,3087,1730,-1,1,0
0,3088,7010,-1,1,0
0,3089,2650,1,1,0
0,3090,5610,1,1,0
0,3091,3960,-1,1,0
0,3092,6290,-1,1,0
0,3093,4790,-1,1,0
0,3094,6310,-1,1,0
0,3095,2550,-1,1,0
0,3096,4010,-1,1,0
0,3097,760,-1,1,0
0,3098,5400,-1,1,0
0,3099,4850,-1,1,0
0,3100,1960,-1,1,0
0,3101,3340,-1,1,0
0,3102,3580,1,1,0
0,3103,840,-1,1,0
0,3104,3310,-1,1,0
0,3105,1760,1,1,0
0,3106,2320,-1,1,0
0,3107,2570,-1,1,0
0,3108,630,-1,1,0
0,3109,1200,-1,1,0
0,3110,8470,-1,1,0
0,3111,1760,-1,1,0
0,3112,1130,-1,1,0
0,3113,5640,1,1,0
0,3114,8210,-1,1,0
0,3115,1560,-1,1,0
0,3116,1520,1,1,0
0,3117,5510,-1,1,0
0,3118,4600,-1,1,0
0,3119,2680,-1,1,0
0,3120,15630,-1,1,0
0,3121,680,-1,1,0
0,3122,1550,-1,1,0
0,3123,1020,-1,1,0
0,3124,9280,-1,1,0
0,3125,3520,-1,1,0
0,3126,1090,-1,1,0
0,3127,2870,1,1,0
0,3128,710,-1,1,0
0,3129,800,-1,1,0
0,3130,3330,-1,1,0
0,3131,2070,-1,1,0
0,3132,1760,-1,1,0
0,3133,5010,-1,1,0
0,3134,2670,-1,1,0
0,3135,550,-1,1,0
0,3136,3260,-1,1,0
0,3137,3530,-1,1,0
0,3138,1930,-1,1,0
0,3139,5510,-1,1,0
0,3140,3660,-1,1,0
0,3141,2760,-1,1,0
0,3142,1880,-1,1,0
0,3143,1020,-1,1,0
0,3144,440,-1,1,0
0,3145,3380,1,1,0
0,3146,5300,-1,1,0
0,3147,950,-1,1,0
0,3148,4000,-1,1,0
0,3149,6920,-1,1,0
0,3150,2050,-1,1,0
0,3151,1550,-1,1,0
0,3152,810,-1,1,0
0,3153,540,-1,1,0
0,3154,420,-1,1,0
0,3155,2600,-1,1,0
0,3156,1230,-1,1,0
0,3157,3470,-1,1,0
0,3158,6060,-1,1,0
0,3159,2550,-1,1,0
0,3160,1120,1,1,0
0,3161,1200,-1,1,0
0,3162,970,-1,1,0
0,3163,900,-1,1,0
0,3164,1290,1,1,0
0,3165,1880,-1,1,0
0,3166,1690,-1,1,0
0,3167,990,-1,1,0
0,3168,10850,-1,1,0
0,3169,1700,-1,1,0
0,3170,7930,1,1,0
0,3171,970,-1,1,0
0,3172,6860,1,1,0
0,3173,1590,-1,1,0
0,3174,2230,-1,1,0
0,3175,4840,-1,1,0
0,3176,9270,-1,1,0
0,3177,1480,-1,1,0
0,3178,1240,1,1,0
0,3179,4180,-1,1,0
0,3180,19480,-1,1,0
0,3181,1440,-1,1,0
0,3182,4280,1,1,0
0,3183,590,-1,1,0
0,3184,3680,-1,1,0
0,3185,4530,-1,1,0
0,3186,700,-1,1,0
0,3187,3580,-1,1,0
0,3188,2160,-1,1,0
0,3189,13120,-1,1,0
0,3190,3190,-1,1,0
0,3191,1740,-1,1,0
0,3192,3760,-1,1,0
0,3193,1350,1,1,0
0,3194,800,1,1,0
0,3195,5300,-1,1,0
0,3196,6470,-1,1,0
0,3197,1550,1,1,0
0,3198,8900,-1,1,0
0,3199,970,1,1,0
0,3200,2110,-1,-1,-1
0,3201,1440,-1,-1,-1
0,3202,9510,1,-1,-1
0,3203,1710,1,-1,-1
0,3204,830,1,-1,-1
0,3205,1160,-1,-1,-1
0,3206,12840,1,-1,-1
0,3207,3920,-1,-1,-1
0,3208,2460,-1,-1,-1
0,3209,1080,1,-1,-1
0,3210,8290,1,-1,-1
0,3211,4630,-1,-1,-1
0,3212,6170,1,-1,-1
0,3213,1800,-1,-1,-1
0,3214,7250,-1,-1,-1
0,3215,8010,1,-1,-1
0,3216,1160,1,-1,-1
0,3217,1100,-1,-1,-1
0,3218,3750,1,-1,-1
0,3219,6280,1,-1,-1
0,3220,7760,-1,-1,-1
0,3221,13900,1,-1,-1
0,3222,7200,1,-1,-1
0,3223,3660,-1,-1,-1
0,3224,6060,1,-1,-1
0,3225,1250,1,-1,-1
0,3226,4340,1,-1,-1
0,3227,5300,-1,-1,-1
0,3228,6970,1,-1,-1
0,3229,2710,1,-1,-1
0,3230,7170,1,-1,-1
0,3231,980,1,-1,-1
0,3232,4080,-1,-1,-1
0,3233,4640,-1,-1,-1
0,3234,3630,-1,-1,-1
0,3235,6860,-1,-1,-1
0,3236,4740,-1,-1,-1
0,3237,1370,-1,-1,-1
0,3238,3930,-1,-1,-1
0,3239,1820,1,-1,-1
0,3240,2220,-1,-1,-1
0,3241,3710,1,-1,-1
0,3242,1530,-1,-1,-1
0,3243,9680,-1,-1,-1
0,3244,1900,-1,-1,-1
0,3245,1110,-1,-1,-1
0,3246,6220,-1,-1,-1
0,3247,3030,-1,-1,-1
0,3248,1380,1,-1,-1
0,3249,1040,1,-1,-1
0,3250,4710,1,-1,-1
0,3251,4630,1,-1,-1
0,3252,7440,-1,-1,-1
0,3253,2940,-1,-1,-1
0,3254,11120,-1,-1,-1
0,3255,3260,-1,-1,-1
0,3256,1560,-1,-1,-1
0,3257,2530,-1,-1,-1
0,3258,1430,-1,-1,-1
0,3259,2660,1,-1,-1
0,3260,1020,1,-1,-1
0,3261,940,-1,-1,-1
0,3262,5380,-1,-1,-1
0,3263,3910,1,-1,-1
0,3264,1360,-1,-1,-1
0,3265,9320,-1,-1,-1
0,3266,5810,-1,-1,-1
0,3267,2570,1,-1,-1
0,3268,14250,1,-1,-1
0,3269,2130,-1,-1,-1
0,3270,6640,-1,-1,-1
0,3271,2500,-1,-1,-1
0,3272,800,-1,-1,-1
0,3273,350,1,-1,-1
0,3274,780,1,-1,-1
0,3275,2830,1,-1,-1
0,3276,2630,-1,-1,-1
0,3277,5460,-1,-1,-1
0,3278,1400,-1,-1,-1
0,3279,1280,1,-1,-1
0,3280,2910,1,-1,-1
0,3281,9250,1,-1,-1
0,3282,3030,1,-1,-1
0,3283,3330,1,-1,-1
0,3284,2880,1,-1,-1
0,3285,2570,-1,-1,-1
0,3286,5010,1,-1,-1
0,3287,6080,-1,-1,-1
0,3288,7590,-1,-1,-1
0,3289,1250,1,-1,-1
0,3290,1000,-1,-1,-1
0,3291,1190,1,-1,-1
0,3292,2260,-1,-1,-1
0,3293,11530,-1,-1,-1
0,3294,2470,1,-1,-1
0,3295,5240,-1,-1,-1
0,3296,1210,-1,-1,-1
0,3297,4150,-1,-1,-1
0,3298,10090,1,-1,-1
0,3299,6160,1,-1,-1
0,3300,10370,-1,-1,-1
0,3301,4230,1,-1,-1
0,3302,9620,-1,-1,-1
0,3303,6070,-1,-1,-1
0,3304,3690,1,-1,-1
0,3305,4030,-1,-1,-1
0,3306,8130,1,-1,-1
0,3307,7990,1,-1,-1
0,3308,2200,-1,-1,-1
0,3309,570,-1,-1,-1
0,3310,1140,1,-1,-1
0,3311,4210,-1,-1,-1
0,3312,1120,1,-1,-1
0,3313,1320,1,-1,-1
0,3314,1690,1,-1,-1
0,3315,7620,-1,-1,-1
0,3316,1050,1,-1,-1
0,3317,9500,-1,-1,-1
0,3318,12840,-1,-1,-1
0,3319,2210,-1,-1,-1
0,3320,5920,1,-1,-1
0,3321,7870,1,-1,-1
0,3322,1600,-1,-1,-1
0,3323,4020,-1,-1,-1
0,3324,2290,1,-1,-1
0,3325,3320,1,-1,-1
0,3326,1140,1,-1,-1
0,3327,9750,1,-1,-1
0,3328,2660,-1,-1,-1
0,3329,6120,1,-1,-1
0,3330,3430,-1,-1,-1
0,3331,350,-1,-1,-1
0,3332,2270,-1,-1,-1
0,3333,4680,1,-1,-1
0,3334,12320,1,-1,-1
0,3335,1460,-1,-1,-1
0,3336,690,-1,-1,-1
0,3337,11370,-1,-1,-1
0,3338,1260,1,-1,-1
0,3339,1050,-1,-1,-1
0,3340,5320,1,-1,-1
0,3341,3300,-1,-1,-1
0,3342,5820,-1,-1,-1
0,3343,1140,-1,-1,-1
0,3344,1880,1,-1,-1
0,3345,4640,1,-1,-1
0,3346,13170,-1,-1,-1
0,3347,1590,-1,-1,-1
0,3348,17550,-1,-1,-1
0,3349,12640,1,-1,-1
0,3350,8060,1,-1,-1
0,3351,5290,1,-1,-1
0,3352,3030,1,-1,-1
0,3353,1850,1,-1,-1
0,3354,8180,-1,-1,-1
0,3355,2990,-1,-1,-1
0,3356,11720,-1,-1,-1
0,3357,3350,1,-1,-1
0,3358,1760,-1,-1,-1
0,3359,1840,-1,-1,-1
0,3360,1050,-1,-1,-1
0,3361,5140,1,-1,-1
0,3362,2810,-1,-1,-1
0,3363,8220,-1,-1,-1
0,3364,2530,-1,-1,-1
0,3365,2540,1,-1,-1
0,3366,1230,1,-1,-1
0,3367,960,-1,-1,-1
0,3368,3720,1,-1,-1
0,3369,930,1,-1,-1
0,3370,2660,-1,-1,-1
0,3371,2170,-1,-1,-1
0,3372,3370,-1,-1,-1
0,3373,8200,1,-1,-1
0,3374,3390,-1,-1,-1
0,3375,2540,-1,-1,-1
0,3376,8450,1,-1,-1
0,3377,5350,-1,-1,-1
0,3378,1450,1,-1,-1
0,3379,1280,1,-1,-1
0,3380,11390,-1,-1,-1
0,3381,700,-1,-1,-1
0,3382,5960,1,-1,-1
0,3383,6800,1,-1,-1
0,3384,1150,1,-1,-1
0,3385,14910,-1,-1,-1
0,3386,4360,1,-1,-1
0,3387,4800,-1,-1,-1
0,3388,1440,1,-1,-1
0,3389,1530,1,-1,-1
0,3390,2300,1,-1,-1
0,3391,2680,1,-1,-1
0,3392,860,1,-1,-1
0,3393,2930,1,-1,-1
0,3394,7020,1,-1,-1
0,3395,3370,-1,-1,-1
0,3396,2040,-1,-1,-1
0,3397,760,-1,-1,-1
0,3398,4820,-1,-1,-1
0,3399,1370,1,-1,-1
0,3400,3620,-1,-1,-1
0,3401,5070,1,-1,-1
0,3402,1110,1,-1,-1
0,3403,2180,-1,-1,-1
0,3404,4700,1,-1,-1
0,3405,2330,-1,-1,-1
0,3406,6000,-1,-1,-1
0,3407,1230,-1,-1,-1
0,3408,5190,1,-1,-1
0,3409,3830,-1,-1,-1
0,3410,2400,-1,-1,-1
0,3411,4410,1,-1,-1
0,3412,4950,-1,-1,-1
0,3413,3360,-1,-1,-1
0,3414,3210,-1,-1,-1
0,3415,2780,1,-1,-1
0,3416,4090,-1,-1,-1
0,3417,1220,-1,-1,-1
0,3418,12920,-1,-1,-1
0,3419,4190,-1,-1,-1
0,3420,6080,1,-1,-1
0,3421,1070,1,-1,-1
0,3422,2930,-1,-1,-1
0,3423,5870,-1,-1,-1
0,3424,410,-1,-1,-1
0,3425,1640,-1,-1,-1
0,3426,4940,1,-1,-1
0,3427,830,-1,-1,-1
0,3428,1730,1,-1,-1
0,3429,8290,1,-1,-1
0,3430,12180,-1,-1,-1
0,3431,1440,1,-1,-1
0,3432,1400,1,-1,-1
0,3433,1200,1,-1,-1
0,3434,10530,-1,-1,-1
0,3435,9470,-1,-1,-1
0,3436,15520,-1,-1,-1
0,3437,4060,1,-1,-1
0,3438,3000,-1,-1,-1
0,3439,1050,1,-1,-1
0,3440,4510,-1,-1,-1
0,3441,8480,1,-1,-1
0,3442,2960,-1,-1,-1
0,3443,1350,-1,-1,-1
0,3444,5430,-1,-1,-1
0,3445,930,1,-1,-1
0,3446,3360,1,-1,-1
0,3447,5640,-1,-1,-1
0,3448,6540,1,-1,-1
0,3449,1470,-1,-1,-1
0,3450,3020,1,-1,-1
0,3451,3300,1,-1,-1
0,3452,3390,1,-1,-1
0,3453,1340,-1,-1,-1
0,3454,3020,-1,-1,-1
0,3455,1710,-1,-1,-1
0,3456,900,1,-1,-1
0,3457,2200,-1,-1,-1
0,3458,8130,-1,-1,-1
0,3459,1060,1,-1,-1
0,3460,3630,-1,-1,-1
0,3461,1980,1,-1,-1
0,3462,1740,1,-1,-1
0,3463,8390,1,-1,-1
0,3464,5850,-1,-1,-1
0,3465,7010,-1,-1,-1
0,3466,2410,1,-1,-1
0,3467,4370,-1,-1,-1
0,3468,6360,1,-1,-1
0,3469,1300,1,-1,-1
0,3470,1220,-1,-1,-1
0,3471,6070,-1,-1,-1
0,3472,19860,-1,-1,-1
0,3473,3250,-1,-1,-1
0,3474,1850,-1,-1,-1
0,3475,5240,1,-1,-1
0,3476,740,-1,-1,-1
0,3477,2930,-1,-1,-1
0,3478,9970,-1,-1,-1
0,3479,2180,1,-1,-1
0,3480,4370,1,-1,-1
0,3481,5560,-1,-1,-1
0,3482,880,1,-1,-1
0,3483,1760,1,-1,-1
0,3484,1280,1,-1,-1
0,3485,5420,-1,-1,-1
0,3486,1460,-1,-1,-1
0,3487,3360,1,-1,-1
0,3488,4180,-1,-1,-1
0,3489,1560,1,-1,-1
0,3490,6590,-1,-1,-1
0,3491,4030,-1,-1,-1
0,3492,6020,1,-1,-1
0,3493,2230,-1,-1,-1
0,3494,2450,1,-1,-1
0,3495,4310,-1,-1,-1
0,3496,4860,1,-1,-1
0,3497,1650,1,-1,-1
0,3498,500,1,-1,-1
0,3499,12770,1,-1,-1
0,3500,3900,1,-1,-1
0,3501,4470,-1,-1,-1
0,3502,1330,1,-1,-1
0,3503,4030,1,-1,-1
0,3504,2710,-1,-1,-1
0,3505,3290,-1,-1,-1
0,3506,1770,-1,-1,-1
0,3507,2440,1,-1,-1
0,3508,7070,1,-1,-1
0,3509,3430,-1,-1,-1
0,3510,2190,-1,-1,-1
0,3511,1510,1,-1,-1
0,3512,5130,1,-1,-1
0,3513,1030,1,-1,-1
0,3514,3260,1,-1,-1
0,3515,6280,1,-1,-1
0,3516,890,1,-1,-1
0,3517,3920,1,-1,-1
0,3518,3300,-1,-1,-1
0,3519,7950,1,-1,-1
0,3520,9250,-1,-1,-1
0,3521,2940,1,-1,-1
0,3522,3700,-1,-1,-1
0,3523,2700,1,-1,-1
0,3524,2660,-1,-1,-1
0,3525,1880,-1,-1,-1
0,3526,5050,-1,-1,-1
0,3527,8740,-1,-1,-1
0,3528,1810,-1,-1,-1
0,3529,1290,-1,-1,-1
0,3530,590,1,-1,-1
0,3531,3190,-1,-1,-1
0,3532,1840,1,-1,-1
0,3533,4260,-1,-1,-1
0,3534,6410,1,-1,-1
0,3535,3070,-1,-1,-1
0,3536,5130,-1,-1,-1
0,3537,9370,1,-1,-1
0,3538,6300,-1,-1,-1
0,3539,6780,1,-1,-1
0,3540,5660,1,-1,-1
0,3541,4300,-1,-1,-1
0,3542,2590,-1,-1,-1
0,3543,4960,-1,-1,-1
0,3544,2470,-1,-1,-1
0,3545,4690,1,-1,-1
0,3546,5150,-1,-1,-1
0,3547,1180,-1,-1,-1
0,3548,10780,1,-1,-1
0,3549,1550,1,-1,-1
0,3550,3250,-1,-1,-1
0,3551,1390,1,-1,-1
0,3552,4300,-1,-1,-1
0,3553,6730,-1,-1,-1
0,3554,4480,-1,-1,-1
0,3555,3720,1,-1,-1
0,3556,2190,1,-1,-1
0,3557,2100,-1,-1,-1
0,3558,4540,-1,-1,-1
0,3559,3690,-1,-1,-1
0,3560,2980,-1,-1,-1
0,3561,2330,1,-1,-1
0,3562,8450,1,-1,-1
0,3563,810,-1,-1,-1
0,3564,6380,-1,-1,-1
0,3565,2750,1,-1,-1
0,3566,3340,-1,-1,-1
0,3567,2070,-1,-1,-1
0,3568,4380,-1,-1,-1
0,3569,1670,-1,-1,-1
0,3570,2430,1,-1,-1
0,3571,2930,1,-1,-1
0,3572,3350,1,-1,-1
0,3573,5740,-1,-1,-1
0,3574,1290,-1,-1,-1
0,3575,11990,-1,-1,-1
0,3576,2480,-1,-1,-1
0,3577,2090,-1,-1,-1
0,3578,1330,1,-1,-1
0,3579,7820,1,-1,-1
0,3580,4470,-1,-1,-1
0,3581,3380,1,-1,-1
0,3582,1080,1,-1,-1
0,3583,10270,-1,-1,-1
0,3584,5610,-1,-1,-1
0,3585,1910,1,-1,-1
0,3586,1440,-1,-1,-1
0,3587,10170,1,-1,-1
0,3588,1270,-1,-1,-1
0,3589,3560,-1,-1,-1
0,3590,1610,1,-1,-1
0,3591,1010,1,-1,-1
0,3592,2210,-1,-1,-1
0,3593,4820,1,-1,-1
0,3594,1050,1,-1,-1
0,3595,2530,1,-1,-1
0,3596,820,-1,-1,-1
0,3597,1510,-1,-1,-1
0,3598,2960,1,-1,-1
0,3599,3450,-1,-1,-1
0,3600,4610,-1,1,0
0,3601,9730,1,1,0
0,3602,3420,-1,1,0
0,3603,3580,1,1,0
0,3604,2170,-1,1,0
0,3605,2740,-1,1,0
0,3606,2840,-1,1,0
0,3607,3240,-1,1,0
0,3608,1980,1,1,0
0,3609,1300,-1,1,0
0,3610,1090,-1,1,0
0,3611,2440,1,1,0
0,3612,4200,-1,1,0
0,3613,1610,-1,1,0
0,3614,2470,-1,1,0
0,3615,5130,-1,1,0
0,3616,3410,-1,1,0
0,3617,20320,1,1,0
0,3618,6340,1,1,0
0,3619,1940,-1,1,0
0,3620,7760,1,1,0
0,3621,2310,1,1,0
0,3622,870,-1,1,0
0,3623,3390,-1,1,0
0,3624,4060,-1,1,0
0,3625,1830,-1,1,0
0,3626,9240,-1,1,0
0,3627,1950,-1,1,0
0,3628,1500,-1,1,0
0,3629,4480,-1,1,0
0,3630,570,1,1,0
0,3631,8600,1,1,0
0,3632,1800,-1,1,0
0,3633,2770,-1,1,0
0,3634,5130,-1,1,0
0,3635,950,1,1,0
0,3636,7480,-1,1,0
0,3637,520,-1,1,0
0,3638,9490,-1,1,0
0,3639,1770,-1,1,0
0,3640,1140,-1,1,0
0,3641,2360,-1,1,0
0,3642,10520,-1,1,0
0,3643,5400,-1,1,0
0,3644,3090,-1,1,0
0,3645,10550,1,1,0
0,3646,510,-1,1,0
0,3647,880,-1,1,0
0,3648,1260,-1,1,0
0,3649,1400,1,1,0
0,3650,3650,1,1,0
0,3651,430,-1,1,0
0,3652,10370,-1,1,0
0,3653,970,-1,1,0
0,3654,5370,-1,1,0
0,3655,1500,1,1,0
0,3656,930,-1,1,0
0,3657,1550,-1,1,0
0,3658,5990,-1,1,0
0,3659,6880,-1,1,0
0,3660,1610,-1,1,0
0,3661,5390,-1,1,0
0,3662,1890,-1,1,0
0,3663,2960,-1,1,0
0,3664,960,1,1,0
0,3665,10430,1,1,0
0,3666,4190,1,1,0
0,3667,3400,1,1,0
0,3668,1320,-1,1,0
0,3669,8820,1,1,0
0,3670,5420,-1,1,0
0,3671,2810,-1,1,0
0,3672,5960,-1,1,0
0,3673,7090,-1,1,0
0,3674,2630,1,1,0
0,3675,1470,-1,1,0
0,3676,2390,-1,1,0
0,3677,1960,1,1,0
0,3678,4110,1,1,0
0,3679,2620,-1,1,0
0,3680,3950,-1,1,0
0,3681,1090,-1,1,0
0,3682,900,1,1,0
0,3683,12710,-1,1,0
0,3684,3800,-1,1,0
0,3685,10300,-1,1,0
0,3686,8930,1,1,0
0,3687,6900,1,1,0
0,3688,1620,-1,1,0
0,3689,1030,-1,1,0
0,3690,5270,1,1,0
0,3691,11810,1,1,0
0,3692,1300,-1,1,0
0,3693,1860,-1,1,0
0,3694,6910,-1,1,0
0,3695,3660,1,1,0
0,3696,2340,-1,1,0
0,3697,2250,-1,1,0
0,3698,14640,1,1,0
0,3699,7900,1,1,0
0,3700,3540,1,1,0
0,3701,7820,1,1,0
0,3702,1070,-1,1,0
0,3703,980,-1,1,0
0,3704,10880,1,1,0
0,3705,3760,-1,1,0
0,3706,3590,-1,1,0
0,3707,6450,-1,1,0
0,3708,5210,-1,1,0
0,3709,2420,1,1,0
0,3710,4160,-1,1,0
0,3711,7390,-1,1,0
0,3712,4250,1,1,0
0,3713,4650,-1,1,0
0,3714,15850,-1,1,0
0,3715,2760,-1,1,0
0,3716,6520,1,1,0
0,3717,5040,1,1,0
0,3718,4310,1,1,0
0,3719,580,-1,1,0
0,3720,2610,-1,1,0
0,3721,7370,-1,1,0
0,3722,710,-1,1,0
0,3723,2560,-1,1,0
0,3724,14020,-1,1,0
0,3725,4430,-1,1,0
0,3726,3060,-1,1,0
0,3727,2200,1,1,0
0,3728,5390,-1,1,0
0,3729,7250,-1,1,0
0,3730,590,-1,1,0
0,3731,3550,-1,1,0
0,3732,1860,-1,1,0
0,3733,1750,-1,1,0
0,3734,2450,-1,1,0
0,3735,6100,-1,1,0
0,3736,920,-1,1,0
0,3737,910,-1,1,0
0,3738,3900,1,1,0
0,3739,960,-1,1,0
0,3740,2480,-1,1,0
0,3741,4130,-1,1,0
0,3742,2850,-1,1,0
0,3743,7670,-1,1,0
0,3744,2900,-1,1,0
0,3745,3710,-1,1,0
0,3746,900,-1,1,0
0,3747,3950,1,1,0
0,3748,5340,-1,1,0
0,3749,2040,1,1,0
0,3750,3440,-1,1,0
0,3751,810,-1,1,0
0,3752,940,-1,1,0
0,3753,1070,-1,1,0
0,3754,3180,1,1,0
0,3755,3770,1,1,0
0,3756,3340,1,1,0
0,3757,4520,-1,1,0
0,3758,10780,-1,1,0
0,3759,7620,-1,1,0
0,3760,1520,1,1,0
0,3761,7550,-1,1,0
0,3762,2380,-1,1,0
0,3763,3890,-1,1,0
0,3764,860,-1,1,0
0,3765,2960,-1,1,0
0,3766,2590,-1,1,0
0,3767,3500,-1,1,0
0,3768,3350,-1,1,0
0,3769,1120,-1,1,0
0,3770,9600,-1,1,0
0,3771,5840,1,1,0
0,3772,1610,-1,1,0
0,3773,10420,-1,1,0
0,3774,3150,-1,1,0
0,3775,1440,1,1,0
0,3776,800,-1,1,0
0,3777,1800,-1,1,0
0,3778,4010,-1,1,0
0,3779,4620,-1,1,0
0,3780,1330,-1,1,0
0,3781,2690,-1,1,0
0,3782,2000,1,1,0
0,3783,6640,-1,1,0
0,3784,1260,1,1,0
0,3785,2340,-1,1,0
0,3786,9070,-1,1,0
0,3787,3850,-1,1,0
0,3788,14150,1,1,0
0,3789,2740,1,1,0
0,3790,1870,-1,1,0
0,3791,970,-1,1,0
0,3792,3360,-1,1,0
0,3793,3290,1,1,0
0,3794,550,-1,1,0
0,3795,5790,-1,1,0
0,3796,4410,-1,1,0
0,3797,8610,-1,1,0
0,3798,2680,-1,1,0
0,3799,2440,-1,1,0
0,3800,11510,1,1,0
0,3801,3280,1,1,0
0,3802,2770,1,1,0
0,3803,3880,-1,1,0
0,3804,3320,-1,1,0
0,3805,3430,1,1,0
0,3806,1410,-1,1,0
0,3807,3050,1,1,0
0,3808,5760,-1,1,0
0,3809,1790,-1,1,0
0,3810,12550,1,1,0
0,3811,2000,-1,1,0
0,3812,5290,1,1,0
0,3813,4320,-1,1,0
0,3814,1650,-1,1,0
0,3815,2110,-1,1,0
0,3816,7570,-1,1,0
0,3817,2350,-1,1,0
0,3818,3700,-1,1,0
0,3819,1030,1,1,0
0,3820,2230,-1,1,0
0,3821,1480,1,1,0
0,3822,5630,-1,1,0
0,3823,3220,1,1,0
0,3824,6190,1,1,0
0,3825,1860,-1,1,0
0,3826,2690,1,1,0
0,3827,12760,-1,1,0
0,3828,8280,1,1,0
0,3829,1250,1,1,0
0,3830,830,-1,1,0
0,3831,8520,-1,1,0
0,3832,820,1,1,0
0,3833,5400,-1,1,0
0,3834,6130,1,1,0
0,3835,1020,1,1,0
0,3836,6960,-1,1,0
0,3837,1300,1,1,0
0,3838,4980,-1,1,0
0,3839,1210,1,1,0
0,3840,2680,-1,1,0
0,3841,4530,1,1,0
0,3842,4360,-1,1,0
0,3843,5780,1,1,0
0,3844,1060,1,1,0
0,3845,18030,-1,1,0
0,3846,1670,-1,1,0
0,3847,1880,1,1,0
0,3848,650,-1,1,0
0,3849,5890,1,1,0
0,3850,1690,1,1,0
0,3851,2660,-1,1,0
0,3852,3470,-1,1,0
0,3853,2000,-1,1,0
0,3854,3730,1,1,0
0,3855,1580,-1,1,0
0,3856,2260,-1,1,0
0,3857,4110,1,1,0
0,3858,3100,-1,1,0
0,3859,6780,-1,1,0
0,3860,6300,-1,1,0
0,3861,3370,-1,1,0
0,3862,2320,-1,1,0
0,3863,13990,-1,1,0
0,3864,5870,-1,1,0
0,3865,2050,-1,1,0
0,3866,8360,1,1,0
0,3867,4120,-1,1,0
0,3868,2340,-1,1,0
0,3869,1160,1,1,0
0,3870,2930,-1,1,0
0,3871,1710,-1,1,0
0,3872,4120,-1,1,0
0,3873,2910,-1,1,0
0,3874,3110,-1,1,0
0,3875,13400,-1,1,0
0,3876,5440,-1,1,0
0,3877,1940,-1,1,0
0,3878,4100,-1,1,0
0,3879,1050,-1,1,0
0,3880,1970,-1,1,0
0,3881,12690,1,1,0
0,3882,1880,-1,1,0
0,3883,13450,1,1,0
0,3884,1860,-1,1,0
0,3885,4160,-1,1,0
0,3886,4230,1,1,0
0,3887,3410,-1,1,0
0,3888,4600,1,1,0
0,3889,3150,1,1,0
0,3890,6050,-1,1,0
0,3891,2170,-1,1,0
0,3892,8530,1,1,0
0,3893,940,1,1,0
0,3894,8630,-1,1,0
0,3895,7540,1,1,0
0,3896,2640,-1,1,0
0,3897,4540,1,1,0
0,3898,7960,-1,1,0
0,3899,1150,-1,1,0
0,3900,2600,1,1,0
0,3901,2000,-1,1,0
0,3902,4770,-1,1,0
0,3903,420,-1,1,0
0,3904,6580,1,1,0
0,3905,3640,-1,1,0
0,3906,3440,-1,1,0
0,3907,4190,-1,1,0
0,3908,2490,-1,1,0
0,3909,2690,-1,1,0
0,3910,7230,-1,1,0
0,3911,2510,-1,1,0
0,3912,4080,-1,1,0
0,3913,3900,-1,1,0
0,3914,1070,-1,1,0
0,3915,810,-1,1,0
0,3916,6190,1,1,0
0,3917,3510,1,1,0
0,3918,4420,-1,1,0
0,3919,770,-1,1,0
0,3920,2110,-1,1,0
0,3921,8640,-1,1,0
0,3922,2800,1,1,0
0,3923,3540,-1,1,0
0,3924,790,-1,1,0
0,3925,2920,1,1,0
0,3926,5010,1,1,0
0,3927,8130,1,1,0
0,3928,1000,-1,1,0
0,3929,5130,1,1,0
0,3930,8000,-1,1,0
0,3931,1890,1,1,0
0,3932,3030,-1,1,0
0,3933,4280,-1,1,0
0,3934,650,-1,1,0
0,3935,5730,-1,1,0
0,3936,2920,-1,1,0
0,3937,4200,1,1,0
0,3938,3380,-1,1,0
0,3939,2110,-1,1,0
0,3940,3060,-1,1,0
0,3941,1750,-1,1,0
0,3942,10220,-1,1,0
0,3943,5600,1,1,0
0,3944,1650,-1,1,0
0,3945,2270,-1,1,0
0,3946,5200,-1,1,0
0,3947,2840,-1,1,0
0,3948,1270,1,1,0
0,3949,2190,-1,1,0
0,3950,4710,-1,1,0
0,3951,6040,-1,1,0
0,3952,6130,1,1,0
0,3953,1880,1,1,0
0,3954,2780,1,1,0
0,3955,1480,-1,1,0
0,3956,1690,-1,1,0
0,3957,2060,-1,1,0
0,3958,1690,-1,1,0
0,3959,700,-1,1,0
0,3960,14140,-1,1,0
0,3961,3360,1,1,0
0,3962,5410,-1,1,0
0,3963,2920,-1,1,0
0,3964,1570,1,1,0
0,3965,6510,-1,1,0
0,3966,2000,-1,1,0
0,3967,1880,-1,1,0
0,3968,7180,1,1,0
0,3969,4360,-1,1,0
0,3970,12570,-1,1,0
0,3971,5270,-1,1,0
0,3972,4590,-1,1,0
0,3973,2100,1,1,0
0,3974,3400,1,1,0
0,3975,2640,-1,1,0
0,3976,2960,-1,1,0
0,3977,2400,1,1,0
0,3978,2140,1,1,0
0,3979,1910,-1,1,0
0,3980,1300,1,1,0
0,3981,1190,-1,1,0
0,3982,9150,1,1,0
0,3983,4660,1,1,0
0,3984,5320,-1,1,0
0,3985,1590,-1,1,0
0,3986,1400,-1,1,0
0,3987,1030,-1,1,0
0,3988,4360,-1,1,0
0,3989,12050,1,1,0
0,3990,5770,-1,1,0
0,3991,750,-1,1,0
0,3992,2280,-1,1,0
0,3993,1150,-1,1,0
0,3994,6840,1,1,0
0,3995,2210,1,1,0
0,3996,3110,1,1,0
0,3997,2250,-1,1,0
0,3998,2180,-1,1,0
0,3999,9880,1,1,0
0,4000,5320,1,-1,-1
0,4001,930,-1,-1,-1
0,4002,900,1,-1,-1
0,4003,2370,1,-1,-1
0,4004,4330,1,-1,-1
0,4005,2840,1,-1,-1
0,4006,2130,-1,-1,-1
0,4007,2260,1,-1,-1
0,4008,4790,-1,-1,-1
0,4009,6730,-1,-1,-1
0,4010,1260,-1,-1,-1
0,4011,3000,1,-1,-1
0,4012,1440,1,-1,-1
0,4013,4920,-1,-1,-1
0,4014,2050,1,-1,-1
0,4015,4140,1,-1,-1
0,4016,2110,1,-1,-1
0,4017,1310,-1,-1,-1
0,4018,3140,1,-1,-1
0,4019,10980,1,-1,-1
0,4020,4520,-1,-1,-1
0,4021,5190,1,-1,-1
0,4022,3270,-1,-1,-1
0,4023,11240,-1,-1,-1
0,4024,4370,1,-1,-1
0,4025,4660,1,-1,-1
0,4026,1260,1,-1,-1
0,4027,1080,-1,-1,-1
0,4028,5980,1,-1,-1
0,4029,2820,1,-1,-1
0,4030,2350,1,-1,-1
0,4031,2400,1,-1,-1
0,4032,4640,1,-1,-1
0,4033,6750,1,-1,-1
0,4034,7720,1,-1,-1
0,4035,2600,1,-1,-1
0,4036,1260,1,-1,-1
0,4037,6830,-1,-1,-1
0,4038,5580,-1,-1,-1
0,4039,2800,1,-1,-1
0,4040,1360,1,-1,-1
0,4041,2310,1,-1,-1
0,4042,2290,-1,-1,-1
0,4043,2510,1,-1,-1
0,4044,4650,1,-1,-1
0,4045,1120,1,-1,-1
0,4046,1770,1,-1,-1
0,4047,10990,1,-1,-1
0,4048,4170,-1,-1,-1
0,4049,1540,1,-1,-1
0,4050,5190,1,-1,-1
0,4051,4170,1,-1,-1
0,4052,3400,1,-1,-1
0,4053,670,1,-1,-1
0,4054,29250,1,-1,-1
0,4055,1010,1,-1,-1
0,4056,1400,-1,-1,-1
0,4057,10790,-1,-1,-1
0,4058,6460,1,-1,-1
0,4059,3820,-1,-1,-1
0,4060,1720,-1,-1,-1
0,4061,3600,1,-1,-1
0,4062,3230,1,-1,-1
0,4063,2380,-1,-1,-1
0,4064,4770,1,-1,-1
0,4065,1080,-1,-1,-1
0,4066,5240,1,-1,-1
0,4067,5450,1,-1,-1
0,4068,550,1,-1,-1
0,4069,1920,-1,-1,-1
0,4070,1610,1,-1,-1
0,4071,3560,1,-1,-1
0,4072,640,-1,-1,-1
0,4073,1330,-1,-1,-1
0,4074,9070,1,-1,-1
0,4075,11040,1,-1,-1
0,4076,1720,1,-1,-1
0,4077,4170,-1,-1,-1
0,4078,6360,1,-1,-1
0,4079,4760,1,-1,-1
0,4080,4380,-1,-1,-1
0,4081,8240,1,-1,-1
0,4082,2640,-1,-1,-1
0,4083,2130,1,-1,-1
0,4084,7180,-1,-1,-1
0,4085,2980,1,-1,-1
0,4086,5880,1,-1,-1
0,4087,4470,1,-1,-1
0,4088,2450,-1,-1,-1
0,4089,1010,1,-1,-1
0,4090,17840,-1,-1,-1
0,4091,2430,1,-1,-1
0,4092,3710,-1,-1,-1
0,4093,2300,1,-1,-1
0,4094,2490,1,-1,-1
0,4095,3280,1,-1,-1
0,4096,3520,1,-1,-1
0,4097,3750,1,-1,-1
0,4098,5380,1,-1,-1
0,4099,7240,1,-1,-1
0,4100,4930,-1,-1,-1
0,4101,2130,-1,-1,-1
0,4102,4490,-1,-1,-1
0,4103,1590,1,-1,-1
0,4104,1960,1,-1,-1
0,4105,630,1,-1,-1
0,4106,2560,1,-1,-1
0,4107,1840,1,-1,-1
0,4108,620,1,-1,-1
0,4109,3430,1,-1,-1
0,4110,8540,-1,-1,-1
0,4111,1530,1,-1,-1
0,4112,6470,-1,-1,-1
0,4113,6400,1,-1,-1
0,4114,1450,1,-1,-1
0,4115,2840,1,-1,-1
0,4116,1730,1,-1,-1
0,4117,5200,-1,-1,-1
0,4118,2830,1,-1,-1
0,4119,8720,-1,-1,-1
0,4120,9440,-1,-1,-1
0,4121,6700,-1,-1,-1
0,4122,6330,-1,-1,-1
0,4123,2450,-1,-1,-1
0,4124,2600,-1,-1,-1
0,4125,13740,1,-1,-1
0,4126,1080,-1,-1,-1
0,4127,2470,-1,-1,-1
0,4128,16700,-1,-1,-1
0,4129,16640,-1,-1,-1
0,4130,2420,-1,-1,-1
0,4131,2010,1,-1,-1
0,4132,1100,1,-1,-1
0,4133,2260,-1,-1,-1
0,4134,1460,-1,-1,-1
0,4135,3780,1,-1,-1
0,4136,830,1,-1,-1
0,4137,3660,-1,-1,-1
0,4138,6260,1,-1,-1
0,4139,780,-1,-1,-1
0,4140,1580,-1,-1,-1
0,4141,2330,-1,-1,-1
0,4142,2370,1,-1,-1
0,4143,5760,1,-1,-1
0,4144,8530,1,-1,-1
0,4145,3990,1,-1,-1
0,4146,4820,1,-1,-1
0,4147,540,-1,-1,-1
0,4148,1250,1,-1,-1
0,4149,7190,1,-1,-1
0,4150,6310,-1,-1,-1
0,4151,5170,1,-1,-1
0,4152,1980,1,-1,-1
0,4153,2510,-1,-1,-1
0,4154,3410,1,-1,-1
0,4155,2210,1,-1,-1
0,4156,2950,1,-1,-1
0,4157,3950,1,-1,-1
0,4158,3270,1,-1,-1
0,4159,3050,-1,-1,-1
0,4160,4490,-1,-1,-1
0,4161,11700,-1,-1,-1
0,4162,2430,1,-1,-1
0,4163,970,-1,-1,-1
0,4164,640,-1,-1,-1
0,4165,1310,1,-1,-1
0,4166,1450,1,-1,-1
0,4167,17020,1,-1,-1
0,4168,2160,1,-1,-1
0,4169,1680,-1,-1,-1
0,4170,2250,-1,-1,-1
0,4171,16690,-1,-1,-1
0,4172,3280,1,-1,-1
0,4173,1120,-1,-1,-1
0,4174,1000,1,-1,-1
0,4175,1090,-1,-1,-1
0,4176,9550,1,-1,-1
0,4177,4910,-1,-1,-1
0,4178,2150,1,-1,-1
0,4179,2000,1,-1,-1
0,4180,460,-1,-1,-1
0,4181,3650,-1,-1,-1
0,4182,2800,-1,-1,-1
0,4183,4920,-1,-1,-1
0,4184,1660,-1,-1,-1
0,4185,4480,1,-1,-1
0,4186,6290,-1,-1,-1
0,4187,3170,-1,-1,-1
0,4188,11930,1,-1,-1
0,4189,1040,-1,-1,-1
0,4190,4990,1,-1,-1
0,4191,4670,1,-1,-1
0,4192,8510,1,-1,-1
0,4193,4500,1,-1,-1
0,4194,2060,-1,-1,-1
0,4195,4510,-1,-1,-1
0,4196,3050,-1,-1,-1
0,4197,3800,1,-1,-1
0,4198,4290,-1,-1,-1
0,4199,12630,-1,-1,-1
0,4200,1620,-1,-1,-1
0,4201,5550,1,-1,-1
0,4202,1160,1,-1,-1
0,4203,1870,1,-1,-1
0,4204,5220,1,-1,-1
0,4205,4670,1,-1,-1
0,4206,5050,-1,-1,-1
0,4207,2990,1,-1,-1
0,4208,12170,-1,-1,-1
0,4209,5900,-1,-1,-1
0,4210,1700,1,-1,-1
0,4211,3020,1,-1,-1
0,4212,6130,1,-1,-1
0,4213,3640,1,-1,-1
0,4214,13050,1,-1,-1
0,4215,4200,1,-1,-1
0,4216,870,1,-1,-1
0,4217,3080,1,-1,-1
0,4218,1710,1,-1,-1
0,4219,3150,1,-1,-1
0,4220,1810,1,-1,-1
0,4221,3770,-1,-1,-1
0,4222,1880,-1,-1,-1
0,4223,2140,-1,-1,-1
0,4224,3200,-1,-1,-1
0,4225,2430,1,-1,-1
0,4226,1590,-1,-1,-1
0,4227,3610,1,-1,-1
0,4228,3720,-1,-1,-1
0,4229,5580,-1,-1,-1
0,4230,4880,-1,-1,-1
0,4231,4000,-1,-1,-1
0,4232,1870,1,-1,-1
0,4233,2450,-1,-1,-1
0,4234,1400,1,-1,-1
0,4235,1040,1,-1,-1
0,4236,7540,1,-1,-1
0,4237,940,1,-1,-1
0,4238,990,-1,-1,-1
0,4239,2530,1,-1,-1
0,4240,5140,1,-1,-1
0,4241,3730,1,-1,-1
0,4242,5560,-1,-1,-1
0,4243,5350,1,-1,-1
0,4244,15210,1,-1,-1
0,4245,1400,-1,-1,-1
0,4246,2630,1,-1,-1
0,4247,4390,-1,-1,-1
0,4248,1320,1,-1,-1
0,4249,1840,1,-1,-1
0,4250,4460,1,-1,-1
0,4251,2410,-1,-1,-1
0,4252,16280,1,-1,-1
0,4253,1270,1,-1,-1
0,4254,2210,1,-1,-1
0,4255,2530,1,-1,-1
0,4256,1630,-1,-1,-1
0,4257,460,1,-1,-1
0,4258,3250,-1,-1,-1
0,4259,4090,1,-1,-1
0,4260,3730,1,-1,-1
0,4261,1740,1,-1,-1
0,4262,12900,1,-1,-1
0,4263,1940,1,-1,-1
0,4264,3730,1,-1,-1
0,4265,7190,-1,-1,-1
0,4266,3260,-1,-1,-1
0,4267,1270,-1,-1,-1
0,4268,2640,1,-1,-1
0,4269,7920,1,-1,-1
0,4270,7710,1,-1,-1
0,4271,9300,-1,-1,-1
0,4272,5680,-1,-1,-1
0,4273,4340,1,-1,-1
0,4274,5130,1,-1,-1
0,4275,1670,-1,-1,-1
0,4276,8580,1,-1,-1
0,4277,13180,-1,-1,-1
0,4278,1240,-1,-1,-1
0,4279,2790,1,-1,-1
0,4280,3500,1,-1,-1
0,4281,11890,-1,-1,-1
0,4282,2460,1,-1,-1
0,4283,4530,-1,-1,-1
0,4284,730,1,-1,-1
0,4285,3250,-1,-1,-1
0,4286,950,1,-1,-1
0,4287,2910,1,-1,-1
0,4288,6240,1,-1,-1
0,4289,4220,-1,-1,-1
0,4290,6820,1,-1,-1
0,4291,3310,-1,-1,-1
0,4292,3030,1,-1,-1
0,4293,3130,1,-1,-1
0,4294,1040,1,-1,-1
0,4295,3370,1,-1,-1
0,4296,9740,1,-1,-1
0,4297,3310,1,-1,-1
0,4298,1890,1,-1,-1
0,4299,1700,1,-1,-1
0,4300,3260,1,-1,-1
0,4301,1770,-1,-1,-1
0,4302,1780,-1,-1,-1
0,4303,4560,-1,-1,-1
0,4304,1010,-1,-1,-1
0,4305,6190,1,-1,-1
0,4306,460,1,-1,-1
0,4307,2940,1,-1,-1
0,4308,8020,-1,-1,-1
0,4309,2460,1,-1,-1
0,4310,3580,1,-1,-1
0,4311,5520,1,-1,-1
0,4312,1130,1,-1,-1
0,4313,1590,1,-1,-1
0,4314,2150,1,-1,-1
0,4315,1600,1,-1,-1
0,4316,4440,-1,-1,-1
0,4317,970,1,-1,-1
0,4318,2910,1,-1,-1
0,4319,3700,-1,-1,-1
0,4320,5140,-1,-1,-1
0,4321,4440,-1,-1,-1
0,4322,7600,1,-1,-1
0,4323,2330,1,-1,-1
0,4324,5660,-1,-1,-1
0,4325,6560,1,-1,-1
0,4326,6180,1,-1,-1
0,4327,5030,1,-1,-1
0,4328,4100,1,-1,-1
0,4329,4210,1,-1,-1
0,4330,4760,-1,-1,-1
0,4331,3120,1,-1,-1
0,4332,1350,1,-1,-1
0,4333,8550,1,-1,-1
0,4334,920,1,-1,-1
0,4335,1710,-1,-1,-1
0,4336,3550,1,-1,-1
0,4337,3180,1,-1,-1
0,4338,3840,-1,-1,-1
0,4339,11200,-1,-1,-1
0,4340,1090,1,-1,-1
0,4341,9380,1,-1,-1
0,4342,1870,-1,-1,-1
0,4343,530,-1,-1,-1
0,4344,8490,-1,-1,-1
0,4345,7310,1,-1,-1
0,4346,940,1,-1,-1
0,4347,4410,-1,-1,-1
0,4348,1110,-1,-1,-1
0,4349,2220,-1,-1,-1
0,4350,1180,1,-1,-1
0,4351,6670,1,-1,-1
0,4352,760,1,-1,-1
0,4353,1930,-1,-1,-1
0,4354,3020,1,-1,-1
0,4355,2860,1,-1,-1
0,4356,8270,-1,-1,-1
0,4357,1940,-1,-1,-1
0,4358,1110,1,-1,-1
0,4359,890,-1,-1,-1
0,4360,3150,1,-1,-1
0,4361,5460,1,-1,-1
0,4362,3380,-1,-1,-1
0,4363,810,-1,-1,-1
0,4364,6470,-1,-1,-1
0,4365,1940,1,-1,-1
0,4366,1160,1,-1,-1
0,4367,5590,1,-1,-1
0,4368,660,1,-1,-1
0,4369,5430,-1,-1,-1
0,4370,680,-1,-1,-1
0,4371,1080,1,-1,-1
0,4372,3560,-1,-1,-1
0,4373,1320,1,-1,-1
0,4374,2380,1,-1,-1
0,4375,2680,-1,-1,-1
0,4376,4770,1,-1,-1
0,4377,960,-1,-1,-1
0,4378,3850,1,-1,-1
0,4379,2590,-1,-1,-1
0,4380,1280,-1,-1,-1
0,4381,7590,1,-1,-1
0,4382,2970,1,-1,-1
0,4383,910,1,-1,-1
0,4384,4300,1,-1,-1
0,4385,1440,-1,-1,-1
0,4386,9020,1,-1,-1
0,4387,2440,1,-1,-1
0,4388,820,1,-1,-1
0,4389,5890,1,-1,-1
0,4390,3440,1,-1,-1
0,4391,3020,1,-1,-1
0,4392,2870,-1,-1,-1
0,4393,2010,1,-1,-1
0,4394,4970,1,-1,-1
0,4395,8500,-1,-1,-1
0,4396,3400,-1,-1,-1
0,4397,2750,1,-1,-1
0,4398,1220,-1,-1,-1
0,4399,2980,1,-1,-1
0,4400,3060,1,0,0
0,4401,7480,1,0,0
0,4402,1950,1,0,0
0,4403,8010,1,0,0
0,4404,2580,1,0,0
0,4405,2420,-1,0,0
0,4406,1730,1,0,0
0,4407,4860,1,0,0
0,4408,1090,-1,0,0
0,4409,4880,1,0,0
0,4410,1110,1,0,0
0,4411,2950,1,0,0
0,4412,2080,-1,0,0
0,4413,4640,-1,0,0
0,4414,5820,1,0,0
0,4415,2010,-1,0,0
0,4416,7230,-1,0,0
0,4417,4080,-1,0,0
0,4418,10180,-1,0,0
0,4419,3500,1,0,0
0,4420,10680,1,0,0
0,4421,800,1,0,0
0,4422,3960,1,0,0
0,4423,2940,1,0,0
0,4424,2670,1,0,0
0,4425,1190,-1,0,0
0,4426,7020,-1,0,0
0,4427,3290,-1,0,0
0,4428,1830,-1,0,0
0,4429,1300,1,0,0
0,4430,1300,-1,0,0
0,4431,13790,1,0,0
0,4432,1960,-1,0,0
0,4433,19670,1,0,0
0,4434,3830,-1,0,0
0,4435,1190,1,0,0
0,4436,3380,-1,0,0
0,4437,2310,-1,0,0
0,4438,8280,-1,0,0
0,4439,1210,-1,0,0
0,4440,2880,1,0,0
0,4441,10430,-1,0,0
0,4442,2740,1,0,0
0,4443,2370,-1,0,0
0,4444,4060,-1,0,0
0,4445,1280,-1,0,0
0,4446,2700,1,0,0
0,4447,1550,-1,0,0
0,4448,1790,1,0,0
0,4449,4950,-1,0,0
0,4450,520,-1,0,0
0,4451,3570,1,0,0
0,4452,6120,1,0,0
0,4453,900,1,0,0
0,4454,16380,1,0,0
0,4455,5320,-1,0,0
0,4456,2000,-1,0,0
0,4457,1570,1,0,0
0,4458,3410,1,0,0
0,4459,9470,-1,0,0
0,4460,1300,1,0,0
0,4461,3340,-1,0,0
0,4462,1040,1,0,0
0,4463,4890,1,0,0
0,4464,3490,-1,0,0
0,4465,4710,1,0,0
0,4466,9960,1,0,0
0,4467,3420,-1,0,0
0,4468,2060,1,0,0
0,4469,2980,1,0,0
0,4470,5120,1,0,0
0,4471,930,-1,0,0
0,4472,1670,1,0,0
0,4473,2920,1,0,0
0,4474,9410,1,0,0
0,4475,3000,1,0,0
0,4476,6170,-1,0,0
0,4477,6160,1,0,0
0,4478,2860,1,0,0
0,4479,4100,-1,0,0
0,4480,4380,-1,0,0
0,4481,1930,1,0,0
0,4482,4030,-1,0,0
0,4483,2620,1,0,0
0,4484,5980,1,0,0
0,4485,6130,-1,0,0
0,4486,3430,1,0,0
0,4487,1460,-1,0,0
0,4488,6500,1,0,0
0,4489,1380,-1,0,0
0,4490,1270,-1,0,0
0,4491,5700,-1,0,0
0,4492,3400,1,0,0
0,4493,5990,-1,0,0
0,4494,8640,-1,0,0
0,4495,6680,1,0,0
0,4496,5660,-1,0,0
0,4497,20460,1,0,0
0,4498,5430,-1,0,0
0,4499,9790,-1,0,0
0,4500,6630,-1,0,0
0,4501,4670,-1,0,0
0,4502,4240,-1,0,0
0,4503,2060,-1,0,0
0,4504,7010,-1,0,0
0,4505,1770,1,0,0
0,4506,1850,-1,0,0
0,4507,5930,1,0,0
0,4508,1430,-1,0,0
0,4509,670,1,0,0
0,4510,4220,1,0,0
0,4511,4870,-1,0,0
0,4512,5790,1,0,0
0,4513,13690,1,0,0
0,4514,10830,-1,0,0
0,4515,2240,-1,0,0
0,4516,13820,1,0,0
0,4517,3950,1,0,0
0,4518,7820,1,0,0
0,4519,9520,1,0,0
0,4520,1110,-1,0,0
0,4521,8850,1,0,0
0,4522,5420,-1,0,0
0,4523,3240,-1,0,0
0,4524,3810,1,0,0
0,4525,720,-1,0,0
0,4526,3580,-1,0,0
0,4527,4830,-1,0,0
0,4528,4950,-1,0,0
0,4529,2530,1,0,0
0,4530,2480,1,0,0
0,4531,1070,1,0,0
0,4532,1020,-1,0,0
0,4533,7330,1,0,0
0,4534,2280,-1,0,0
0,4535,4250,1,0,0
0,4536,2570,-1,0,0
0,4537,6740,1,0,0
0,4538,3480,1,0,0
0,4539,6280,-1,0,0
0,4540,2920,-1,0,0
0,4541,2080,-1,0,0
0,4542,2930,-1,0,0
0,4543,1610,-1,0,0
0,4544,5450,1,0,0
0,4545,6500,-1,0,0
0,4546,700,1,0,0
0,4547,1520,1,0,0
0,4548,910,-1,0,0
0,4549,7970,1,0,0
0,4550,13580,-1,0,0
0,4551,4460,-1,0,0
0,4552,1750,1,0,0
0,4553,1110,-1,0,0
0,4554,2640,1,0,0
0,4555,17700,1,0,0
0,4556,6300,1,0,0
0,4557,1380,1,0,0
0,4558,1210,-1,0,0
0,4559,2850,-1,0,0
0,4560,3930,1,0,0
0,4561,1820,-1,0,0
0,4562,8970,-1,0,0
0,4563,690,1,0,0
0,4564,11680,-1,0,0
0,4565,3010,-1,0,0
0,4566,9520,-1,0,0
0,4567,8220,-1,0,0
0,4568,1040,1,0,0
0,4569,2380,1,0,0
0,4570,870,-1,0,0
0,4571,1590,-1,0,0
0,4572,1200,-1,0,0
0,4573,3640,-1,0,0
0,4574,640,-1,0,0
0,4575,1190,-1,0,0
0,4576,2910,1,0,0
0,4577,3630,-1,0,0
0,4578,4540,1,0,0
0,4579,7720,1,0,0
0,4580,8900,-1,0,0
0,4581,1930,1,0,0
0,4582,550,1,0,0
0,4583,6080,1,0,0
0,4584,5750,1,0,0
0,4585,2340,1,0,0
0,4586,1120,1,0,0
0,4587,2340,-1,0,0
0,4588,1060,1,0,0
0,4589,4250,1,0,0
0,4590,1710,1,0,0
0,4591,2850,-1,0,0
0,4592,1330,-1,0,0
0,4593,1060,-1,0,0
0,4594,1550,1,0,0
0,4595,3640,-1,0,0
0,4596,4980,-1,0,0
0,4597,5520,1,0,0
0,4598,7370,-1,0,0
0,4599,3460,-1,0,0
0,4600,4750,-1,0,0
0,4601,6460,1,0,0
0,4602,16510,1,0,0
0,4603,1310,-1,0,0
0,4604,2170,1,0,0
0,4605,3650,1,0,0
0,4606,8360,1,0,0
0,4607,3270,1,0,0
0,4608,660,1,0,0
0,4609,1990,-1,0,0
0,4610,4030,1,0,0
0,4611,1000,1,0,0
0,4612,690,-1,0,0
0,4613,1490,-1,0,0
0,4614,7950,-1,0,0
0,4615,6040,-1,0,0
0,4616,3590,1,0,0
0,4617,2750,1,0,0
0,4618,9590,-1,0,0
0,4619,2870,-1,0,0
0,4620,3250,1,0,0
0,4621,14570,1,0,0
0,4622,4130,1,0,0
0,4623,2530,1,0,0
0,4624,620,-1,0,0
0,4625,1170,-1,0,0
0,4626,10210,-1,0,0
0,4627,2790,-1,0,0
0,4628,4270,1,0,0
0,4629,2960,1,0,0
0,4630,2060,1,0,0
0,4631,1960,1,0,0
0,4632,1600,-1,0,0
0,4633,1310,1,0,0
0,4634,1830,1,0,0
0,4635,2790,1,0,0
0,4636,3530,1,0,0
0,4637,4550,1,0,0
0,4638,740,1,0,0
0,4639,11020,-1,0,0
0,4640,2510,-1,0,0
0,4641,820,-1,0,0
0,4642,1260,1,0,0
0,4643,720,-1,0,0
0,4644,3800,-1,0,0
0,4645,4460,-1,0,0
0,4646,3640,-1,0,0
0,4647,9060,1,0,0
0,4648,2780,1,0,0
0,4649,6270,1,0,0
0,4650,2330,-1,0,0
0,4651,2530,1,0,0
0,4652,6170,1,0,0
0,4653,12200,-1,0,0
0,4654,3210,-1,0,0
0,4655,10430,1,0,0
0,4656,3850,1,0,0
0,4657,1860,1,0,0
0,4658,2000,1,0,0
0,4659,7640,-1,0,0
0,4660,800,-1,0,0
0,4661,2990,1,0,0
0,4662,600,1,0,0
0,4663,6000,1,0,0
0,4664,280,1,0,0
0,4665,3880,1,0,0
0,4666,16740,1,0,0
0,4667,9820,1,0,0
0,4668,1400,1,0,0
0,4669,6540,-1,0,0
0,4670,8000,1,0,0
0,4671,2930,-1,0,0
0,4672,2210,-1,0,0
0,4673,4200,-1,0,0
0,4674,4940,-1,0,0
0,4675,1220,-1,0,0
0,4676,2870,-1,0,0
0,4677,1670,1,0,0
0,4678,2010,1,0,0
0,4679,6990,1,0,0
0,4680,2520,1,0,0
0,4681,8010,-1,0,0
0,4682,1330,-1,0,0
0,4683,1500,-1,0,0
0,4684,1720,-1,0,0
0,4685,2440,1,0,0
0,4686,8530,1,0,0
0,4687,7710,1,0,0
0,4688,2850,-1,0,0
0,4689,1200,-1,0,0
0,4690,1930,-1,0,0
0,4691,3270,-1,0,0
0,4692,11640,-1,0,0
0,4693,5340,1,0,0
0,4694,1510,1,0,0
0,4695,5170,1,0,0
0,4696,860,1,0,0
0,4697,5830,-1,0,0
0,4698,9620,-1,0,0
0,4699,3230,1,0,0
0,4700,12480,-1,0,0
0,4701,1140,-1,0,0
0,4702,2390,-1,0,0
0,4703,4300,1,0,0
0,4704,4690,-1,0,0
0,4705,3260,1,0,0
0,4706,1770,-1,0,0
0,4707,2830,1,0,0
0,4708,3130,1,0,0
0,4709,1840,1,0,0
0,4710,6520,-1,0,0
0,4711,3780,1,0,0
0,4712,8330,1,0,0
0,4713,550,-1,0,0
0,4714,5750,-1,0,0
0,4715,1130,1,0,0
0,4716,1620,1,0,0
0,4717,8870,1,0,0
0,4718,6350,-1,0,0
0,4719,5580,-1,0,0
0,4720,4260,-1,0,0
0,4721,3720,1,0,0
0,4722,17100,-1,0,0
0,4723,770,-1,0,0
0,4724,2070,1,0,0
0,4725,3500,1,0,0
0,4726,3450,1,0,0
0,4727,6400,-1,0,0
0,4728,10430,-1,0,0
0,4729,2950,1,0,0
0,4730,2930,1,0,0
0,4731,5760,1,0,0
0,4732,2860,-1,0,0
0,4733,1590,1,0,0
0,4734,2730,-1,0,0
0,4735,1210,1,0,0
0,4736,5470,1,0,0
0,4737,4280,1,0,0
0,4738,3070,1,0,0
0,4739,2480,1,0,0
0,4740,16450,-1,0,0
0,4741,10300,1,0,0
0,4742,7190,-1,0,0
0,4743,3210,1,0,0
0,4744,2340,1,0,0
0,4745,2080,1,0,0
0,4746,4990,-1,0,0
0,4747,2810,1,0,0
0,4748,7820,1,0,0
0,4749,1560,-1,0,0
0,4750,5900,-1,0,0
0,4751,2380,-1,0,0
0,4752,6670,1,0,0
0,4753,2120,1,0,0
0,4754,13000,1,0,0
0,4755,1940,-1,0,0
0,4756,3750,-1,0,0
0,4757,6600,-1,0,0
0,4758,10430,1,0,0
0,4759,5690,1,0,0
0,4760,5190,-1,0,0
0,4761,1220,-1,0,0
0,4762,4080,1,0,0
0,4763,4450,-1,0,0
0,4764,1280,-1,0,0
0,4765,2900,1,0,0
0,4766,4100,-1,0,0
0,4767,1060,1,0,0
0,4768,4700,-1,0,0
0,4769,2410,1,0,0
0,4770,1270,-1,0,0
0,4771,6050,-1,0,0
0,4772,4040,-1,0,0
0,4773,2320,-1,0,0
0,4774,1160,-1,0,0
0,4775,870,-1,0,0
0,4776,2520,-1,0,0
0,4777,2490,-1,0,0
0,4778,3970,1,0,0
0,4779,5260,1,0,0
0,4780,7570,1,0,0
0,4781,4210,1,0,0
0,4782,3850,-1,0,0
0,4783,3300,1,0,0
0,4784,2270,-1,0,0
0,4785,4060,1,0,0
0,4786,4440,-1,0,0
0,4787,1800,-1,0,0
0,4788,1160,-1,0,0
0,4789,1370,1,0,0
0,4790,3770,1,0,0
0,4791,4110,-1,0,0
0,4792,2220,1,0,0
0,4793,1160,-1,0,0
0,4794,2800,1,0,0
0,4795,2060,1,0,0
0,4796,560,1,0,0
0,4797,1960,-1,0,0
0,4798,8650,1,0,0
0,4799,4910,1,0,0
0,4800,8080,1,-1,0
0,4801,1750,1,-1,0
0,4802,1710,-1,-1,0
0,4803,6330,1,-1,0
0,4804,1820,1,-1,0
0,4805,5630,1,-1,0
0,4806,5710,1,-1,0
0,4807,14820,1,-1,0
0,4808,2000,-1,-1,0
0,4809,3040,1,-1,0
0,4810,1800,-1,-1,0
0,4811,2800,-1,-1,0
0,4812,10080,1,-1,0
0,4813,1190,1,-1,0
0,4814,1970,1,-1,0
0,4815,1660,1,-1,0
0,4816,5540,1,-1,0
0,4817,3570,-1,-1,0
0,4818,6610,-1,-1,0
0,4819,6570,1,-1,0
0,4820,2070,-1,-1,0
0,4821,3080,-1,-1,0
0,4822,11400,1,-1,0
0,4823,2690,-1,-1,0
0,4824,1720,-1,-1,0
0,4825,7320,1,-1,0
0,4826,1810,-1,-1,0
0,4827,710,-1,-1,0
0,4828,1210,1,-1,0
0,4829,2000,-1,-1,0
0,4830,1770,-1,-1,0
0,4831,1800,1,-1,0
0,4832,2530,1,-1,0
0,4833,3170,1,-1,0
0,4834,1850,1,-1,0
0,4835,2940,-1,-1,0
0,4836,7890,1,-1,0
0,4837,4920,1,-1,0
0,4838,8000,-1,-1,0
0,4839,1850,1,-1,0
0,4840,6750,-1,-1,0
0,4841,1310,1,-1,0
0,4842,5210,-1,-1,0
0,4843,6190,1,-1,0
0,4844,1630,-1,-1,0
0,4845,8780,1,-1,0
0,4846,1140,1,-1,0
0,4847,650,-1,-1,0
0,4848,5540,1,-1,0
0,4849,910,1,-1,0
0,4850,5100,-1,-1,0
0,4851,2760,1,-1,0
0,4852,3720,1,-1,0
0,4853,13940,1,-1,0
0,4854,1910,-1,-1,0
0,4855,7160,1,-1,0
0,4856,1430,1,-1,0
0,4857,950,1,-1,0
0,4858,6490,1,-1,0
0,4859,1700,1,-1,0
0,4860,970,-1,-1,0
0,4861,1130,1,-1,0
0,4862,3630,1,-1,0
0,4863,3790,-1,-1,0
0,4864,530,1,-1,0
0,4865,6760,-1,-1,0
0,4866,1580,1,-1,0
0,4867,5380,1,-1,0
0,4868,3360,1,-1,0
0,4869,10380,1,-1,0
0,4870,5130,-1,-1,0
0,4871,2140,1,-1,0
0,4872,6730,-1,-1,0
0,4873,1230,1,-1,0
0,4874,390,1,-1,0
0,4875,5360,1,-1,0
0,4876,1480,1,-1,0
0,4877,5760,-1,-1,0
0,4878,5280,1,-1,0
0,4879,2050,1,-1,0
0,4880,2630,1,-1,0
0,4881,2780,-1,-1,0
0,4882,1140,1,-1,0
0,4883,12910,1,-1,0
0,4884,2300,1,-1,0
0,4885,2020,-1,-1,0
0,4886,1770,-1,-1,0
0,4887,6170,-1,-1,0
0,4888,5670,1,-1,0
0,4889,6840,1,-1,0
0,4890,960,1,-1,0
0,4891,4570,-1,-1,0
0,4892,1700,1,-1,0
0,4893,6930,1,-1,0
0,4894,2160,-1,-1,0
0,4895,11670,1,-1,0
0,4896,2150,1,-1,0
0,4897,2720,1,-1,0
0,4898,4190,1,-1,0
0,4899,800,1,-1,0
0,4900,2470,1,-1,0
0,4901,900,-1,-1,0
0,4902,4560,1,-1,0
0,4903,8960,-1,-1,0
0,4904,15920,-1,-1,0
0,4905,11900,1,-1,0
0,4906,5060,1,-1,0
0,4907,7950,1,-1,0
0,4908,1130,1,-1,0
0,4909,1370,1,-1,0
0,4910,1850,1,-1,0
0,4911,3040,1,-1,0
0,4912,2050,1,-1,0
0,4913,4390,1,-1,0
0,4914,4780,1,-1,0
0,4915,6640,-1,-1,0
0,4916,3270,1,-1,0
0,4917,13400,1,-1,0
0,4918,1280,1,-1,0
0,4919,4220,-1,-1,0
0,4920,420,1,-1,0
0,4921,2000,1,-1,0
0,4922,4000,1,-1,0
0,4923,11870,1,-1,0
0,4924,7730,1,-1,0
0,4925,9920,-1,-1,0
0,4926,2980,1,-1,0
0,4927,930,1,-1,0
0,4928,510,1,-1,0
0,4929,1650,-1,-1,0
0,4930,3690,1,-1,0
0,4931,9030,1,-1,0
0,4932,1670,1,-1,0
0,4933,750,-1,-1,0
0,4934,700,-1,-1,0
0,4935,3490,1,-1,0
0,4936,3400,-1,-1,0
0,4937,1590,1,-1,0
0,4938,2540,-1,-1,0
0,4939,2740,1,-1,0
0,4940,290,1,-1,0
0,4941,850,-1,-1,0
0,4942,3740,-1,-1,0
0,4943,2400,1,-1,0
0,4944,12100,-1,-1,0
0,4945,15770,-1,-1,0
0,4946,2930,1,-1,0
0,4947,4400,1,-1,0
0,4948,5150,-1,-1,0
0,4949,8110,-1,-1,0
0,4950,2690,-1,-1,0
0,4951,2210,1,-1,0
0,4952,8770,1,-1,0
0,4953,900,1,-1,0
0,4954,6030,1,-1,0
0,4955,5290,1,-1,0
0,4956,2670,1,-1,0
0,4957,2220,-1,-1,0
0,4958,3830,-1,-1,0
0,4959,1540,-1,-1,0
0,4960,1860,-1,-1,0
0,4961,4380,1,-1,0
0,4962,4360,-1,-1,0
0,4963,4850,1,-1,0
0,4964,2160,-1,-1,0
0,4965,2630,1,-1,0
0,4966,2170,-1,-1,0
0,4967,4320,1,-1,0
0,4968,2360,1,-1,0
0,4969,5140,1,-1,0
0,4970,3870,-1,-1,0
0,4971,5280,1,-1,0
0,4972,2000,-1,-1,0
0,4973,980,-1,-1,0
0,4974,2220,1,-1,0
0,4975,3740,-1,-1,0
0,4976,860,1,-1,0
0,4977,1330,1,-1,0
0,4978,1570,-1,-1,0
0,4979,22300,1,-1,0
0,4980,1200,-1,-1,0
0,4981,470,1,-1,0
0,4982,2740,1,-1,0
0,4983,2050,1,-1,0
0,4984,2110,-1,-1,0
0,4985,2000,1,-1,0
0,4986,5480,-1,-1,0
0,4987,4060,1,-1,0
0,4988,9480,1,-1,0
0,4989,2180,1,-1,0
0,4990,1800,1,-1,0
0,4991,2950,-1,-1,0
0,4992,1870,1,-1,0
0,4993,880,-1,-1,0
0,4994,1580,1,-1,0
0,4995,1820,1,-1,0
0,4996,5750,1,-1,0
0,4997,12940,1,-1,0
0,4998,2700,1,-1,0
0,4999,3640,-1,-1,0
0,5000,4620,1,-1,0
0,5001,1130,1,-1,0
0,5002,1490,-1,-1,0
0,5003,3660,-1,-1,0
0,5004,2760,1,-1,0
0,5005,3630,-1,-1,0
0,5006,5140,1,-1,0
0,5007,490,1,-1,0
0,5008,2770,-1,-1,0
0,5009,3290,1,-1,0
0,5010,1740,-1,-1,0
0,5011,5340,-1,-1,0
0,5012,2960,1,-1,0
0,5013,5600,1,-1,0
0,5014,1810,1,-1,0
0,5015,2680,-1,-1,0
0,5016,5370,-1,-1,0
0,5017,6320,1,-1,0
0,5018,980,1,-1,0
0,5019,1430,-1,-1,0
0,5020,1750,1,-1,0
0,5021,2760,1,-1,0
0,5022,4320,1,-1,0
0,5023,2250,-1,-1,0
0,5024,1040,1,-1,0
0,5025,3780,1,-1,0
0,5026,3440,-1,-1,0
0,5027,1490,-1,-1,0
0,5028,3360,1,-1,0
0,5029,5380,-1,-1,0
0,5030,6480,1,-1,0
0,5031,2260,1,-1,0
0,5032,1390,1,-1,0
0,5033,1290,-1,-1,0
0,5034,9410,1,-1,0
0,5035,3010,-1,-1,0
0,5036,2190,1,-1,0
0,5037,4950,1,-1,0
0,5038,4140,1,-1,0
0,5039,2740,-1,-1,0
0,5040,5340,-1,-1,0
0,5041,5190,1,-1,0
0,5042,1310,-1,-1,0
0,5043,790,1,-1,0
0,5044,1850,-1,-1,0
0,5045,5250,-1,-1,0
0,5046,1480,-1,-1,0
0,5047,3240,1,-1,0
0,5048,5210,1,-1,0
0,5049,910,-1,-1,0
0,5050,7190,1,-1,0
0,5051,1240,1,-1,0
0,5052,4660,1,-1,0
0,5053,2360,-1,-1,0
0,5054,420,1,-1,0
0,5055,16680,1,-1,0
0,5056,3130,-1,-1,0
0,5057,5750,1,-1,0
0,5058,2040,-1,-1,0
0,5059,3410,1,-1,0
0,5060,4180,1,-1,0
0,5061,4300,1,-1,0
0,5062,5790,1,-1,0
0,5063,16560,1,-1,0
0,5064,1710,1,-1,0
0,5065,3860,-1,-1,0
0,5066,2430,-1,-1,0
0,5067,1310,1,-1,0
0,5068,1940,1,-1,0
0,5069,2010,-1,-1,0
0,5070,3710,1,-1,0
0,5071,3770,-1,-1,0
0,5072,1800,-1,-1,0
0,5073,6030,-1,-1,0
0,5074,17670,1,-1,0
0,5075,2540,1,-1,0
0,5076,11520,1,-1,0
0,5077,2340,1,-1,0
0,5078,570,1,-1,0
0,5079,14720,1,-1,0
0,5080,4030,1,-1,0
0,5081,12930,-1,-1,0
0,5082,750,-1,-1,0
0,5083,1330,1,-1,0
0,5084,1450,-1,-1,0
0,5085,9630,1,-1,0
0,5086,3400,1,-1,0
0,5087,2750,1,-1,0
0,5088,1890,-1,-1,0
0,5089,4390,-1,-1,0
0,5090,5870,-1,-1,0
0,5091,840,1,-1,0
0,5092,1160,-1,-1,0
0,5093,6000,1,-1,0
0,5094,17990,1,-1,0
0,5095,2330,-1,-1,0
0,5096,5210,1,-1,0
0,5097,3360,-1,-1,0
0,5098,10670,1,-1,0
0,5099,1770,1,-1,0
0,5100,3670,1,-1,0
0,5101,5210,-1,-1,0
0,5102,1050,-1,-1,0
0,5103,3390,1,-1,0
0,5104,1830,1,-1,0
0,5105,1220,-1,-1,0
0,5106,3300,1,-1,0
0,5107,5110,1,-1,0
0,5108,3200,-1,-1,0
0,5109,4510,-1,-1,0
0,5110,1460,-1,-1,0
0,5111,2920,-1,-1,0
0,5112,7040,-1,-1,0
0,5113,8530,1,-1,0
0,5114,3350,-1,-1,0
0,5115,2560,-1,-1,0
0,5116,1660,1,-1,0
0,5117,7480,-1,-1,0
0,5118,2740,1,-1,0
0,5119,10040,1,-1,0
0,5120,1650,1,-1,0
0,5121,1050,1,-1,0
0,5122,3480,-1,-1,0
0,5123,3580,1,-1,0
0,5124,14280,-1,-1,0
0,5125,1950,-1,-1,0
0,5126,1990,-1,-1,0
0,5127,3050,1,-1,0
0,5128,4570,-1,-1,0
0,5129,1890,-1,-1,0
0,5130,23610,1,-1,0
0,5131,1900,1,-1,0
0,5132,9890,1,-1,0
0,5133,4160,-1,-1,0
0,5134,3780,1,-1,0
0,5135,3710,1,-1,0
0,5136,7030,1,-1,0
0,5137,1700,-1,-1,0
0,5138,900,-1,-1,0
0,5139,3330,1,-1,0
0,5140,9320,1,-1,0
0,5141,6260,-1,-1,0
0,5142,5730,1,-1,0
0,5143,910,1,-1,0
0,5144,5440,1,-1,0
0,5145,4310,1,-1,0
0,5146,6570,-1,-1,0
0,5147,590,1,-1,0
0,5148,4200,1,-1,0
0,5149,580,1,-1,0
0,5150,5380,1,-1,0
0,5151,6370,1,-1,0
0,5152,7120,-1,-1,0
0,5153,1840,-1,-1,0
0,5154,1080,1,-1,0
0,5155,3130,1,-1,0
0,5156,1470,1,-1,0
0,5157,14200,1,-1,0
0,5158,2400,1,-1,0
0,5159,2570,-1,-1,0
0,5160,1070,1,-1,0
0,5161,1100,-1,-1,0
0,5162,3510,1,-1,0
0,5163,8890,-1,-1,0
0,5164,1750,-1,-1,0
0,5165,1090,1,-1,0
0,5166,2600,1,-1,0
0,5167,4860,1,-1,0
0,5168,7270,-1,-1,0
0,5169,1090,1,-1,0
0,5170,2890,1,-1,0
0,5171,8890,1,-1,0
0,5172,3200,1,-1,0
0,5173,4660,1,-1,0
0,5174,36840,1,-1,0
0,5175,1420,1,-1,0
0,5176,7750,1,-1,0
0,5177,2320,-1,-1,0
0,5178,8390,1,-1,0
0,5179,5740,-1,-1,0
0,5180,4350,-1,-1,0
0,5181,4840,1,-1,0
0,5182,850,1,-1,0
0,5183,14670,-1,-1,0
0,5184,6410,1,-1,0
0,5185,5780,1,-1,0
0,5186,1670,1,-1,0
0,5187,4480,1,-1,0
0,5188,6280,1,-1,0
0,5189,2480,1,-1,0
0,5190,4010,1,-1,0
0,5191,4650,-1,-1,0
0,5192,820,1,-1,0
0,5193,2670,1,-1,0
0,5194,4100,1,-1,0
0,5195,3900,-1,-1,0
0,5196,3300,-1,-1,0
0,5197,1280,1,-1,0
0,5198,730,-1,-1,0
0,5199,4920,1,-1,0
0,5200,2930,1,-1,-1
0,5201,1730,1,-1,-1
0,5202,5870,1,-1,-1
0,5203,4550,-1,-1,-1
0,5204,2590,1,-1,-1
0,5205,2570,1,-1,-1
0,5206,1810,-1,-1,-1
0,5207,1300,1,-1,-1
0,5208,3350,-1,-1,-1
0,5209,8610,-1,-1,-1
0,5210,5320,1,-1,-1
