parcode,trial,rt,choice,item_left,item_right
0,0,2860,1,1,1
0,1,1060,1,1,1
0,2,1770,1,1,1
0,3,2770,-1,1,1
0,4,1030,1,1,1
0,5,1760,1,1,1
0,6,1030,1,1,1
0,7,1730,1,1,1
0,8,940,1,1,1
0,9,1780,1,1,1
0,10,1160,1,1,1
0,11,4870,1,1,1
0,12,2560,1,1,1
0,13,6400,1,1,1
0,14,530,-1,1,1
0,15,6220,1,1,1
0,16,710,-1,1,1
0,17,840,1,1,1
0,18,2210,1,1,1
0,19,4850,1,1,1
0,20,1000,-1,1,1
0,21,5280,1,1,1
0,22,4480,1,1,1
0,23,7450,1,1,1
0,24,2060,1,1,1
0,25,2280,1,1,1
0,26,2670,1,1,1
0,27,1790,1,1,1
0,28,10000,-1,1,1
0,29,3860,1,1,1
0,30,3660,-1,1,1
0,31,1570,1,1,1
0,32,1810,1,1,1
0,33,1090,-1,1,1
0,34,2080,1,1,1
0,35,3150,1,1,1
0,36,1910,1,1,1
0,37,5110,1,1,1
0,38,6020,1,1,1
0,39,11070,1,1,1
0,40,5290,1,1,1
0,41,1540,-1,1,1
0,42,580,-1,1,1
0,43,1230,1,1,1
0,44,3650,1,1,1
0,45,8030,1,1,1
0,46,8680,1,1,1
0,47,1400,-1,1,1
0,48,1300,-1,1,1
0,49,2490,1,1,1
0,50,2820,1,1,1
0,51,2470,1,1,1
0,52,1770,1,1,1
0,53,1850,1,1,1
0,54,890,-1,1,1
0,55,2090,1,1,1
0,56,1620,1,1,1
0,57,4520,1,1,1
0,58,3280,1,1,1
0,59,2010,1,1,1
0,60,930,-1,1,1
0,61,2140,1,1,1
0,62,2030,1,1,1
0,63,8250,1,1,1
0,64,1830,1,1,1
0,65,7830,1,1,1
0,66,2310,1,1,1
0,67,1370,1,1,1
0,68,1180,1,1,1
0,69,1920,1,1,1
0,70,1550,1,1,1
0,71,2390,1,1,1
0,72,1550,1,1,1
0,73,3970,1,1,1
0,74,630,-1,1,1
0,75,1430,1,1,1
0,76,6030,1,1,1
0,77,2960,-1,1,1
0,78,4510,1,1,1
0,79,1740,1,1,1
0,80,1920,1,1,1
0,81,1600,1,1,1
0,82,3580,1,1,1
0,83,4890,1,1,1
0,84,6870,1,1,1
0,85,830,1,1,1
0,86,1010,1,1,1
0,87,1930,1,1,1
0,88,1320,1,1,1
0,89,1350,1,1,1
0,90,2600,1,1,1
0,91,7480,1,1,1
0,92,2650,1,1,1
0,93,2200,1,1,1
0,94,1980,-1,1,1
0,95,1670,1,1,1
0,96,1770,1,1,1
0,97,3960,1,1,1
0,98,12710,1,1,1
0,99,2960,1,1,1
0,100,2650,1,1,1
0,101,4050,1,1,1
0,102,6520,1,1,1
0,103,1960,1,1,1
0,104,9220,1,1,1
0,105,2030,1,1,1
0,106,7780,1,1,1
0,107,12580,-1,1,1
0,108,2080,1,1,1
0,109,1740,1,1,1
0,110,1840,1,1,1
0,111,1810,-1,1,1
0,112,4350,1,1,1
0,113,2670,1,1,1
0,114,1530,1,1,1
0,115,1880,1,1,1
0,116,1730,1,1,1
0,117,3910,1,1,1
0,118,6360,-1,1,1
0,119,6580,1,1,1
0,120,8970,-1,1,1
0,121,1780,1,1,1
0,122,1940,1,1,1
0,123,2140,-1,1,1
0,124,5830,1,1,1
0,125,1440,-1,1,1
0,126,4540,1,1,1
0,127,3810,1,1,1
0,128,1070,-1,1,1
0,129,2020,1,1,1
0,130,4470,1,1,1
0,131,5710,1,1,1
0,132,3730,1,1,1
0,133,460,-1,1,1
0,134,1440,1,1,1
0,135,1060,1,1,1
0,136,4770,1,1,1
0,137,6450,1,1,1
0,138,3080,-1,1,1
0,139,5930,1,1,1
0,140,3450,1,1,1
0,141,9640,1,1,1
0,142,2260,1,1,1
0,143,4520,1,1,1
0,144,1650,1,1,1
0,145,6980,1,1,1
0,146,7250,1,1,1
0,147,1960,1,1,1
0,148,4700,1,1,1
0,149,1660,-1,1,1
0,150,5440,-1,1,1
0,151,2160,1,1,1
0,152,1450,1,1,1
0,153,5650,1,1,1
0,154,2780,1,1,1
0,155,6450,1,1,1
0,156,930,-1,1,1
0,157,770,1,1,1
0,158,1020,-1,1,1
0,159,1610,1,1,1
0,160,2960,1,1,1
0,161,4260,1,1,1
0,162,5620,1,1,1
0,163,6390,-1,1,1
0,164,6160,1,1,1
0,165,1330,-1,1,1
0,166,9960,-1,1,1
0,167,2450,-1,1,1
0,168,2470,1,1,1
0,169,2230,1,1,1
0,170,4240,1,1,1
0,171,2350,1,1,1
0,172,2470,-1,1,1
0,173,2640,1,1,1
0,174,9010,1,1,1
0,175,1670,-1,1,1
0,176,3670,1,1,1
0,177,10990,1,1,1
0,178,3430,1,1,1
0,179,6860,1,1,1
0,180,1800,1,1,1
0,181,6970,1,1,1
0,182,2150,1,1,1
0,183,3510,1,1,1
0,184,7720,1,1,1
0,185,4430,-1,1,1
0,186,1830,1,1,1
0,187,1080,1,1,1
0,188,2290,1,1,1
0,189,4900,1,1,1
0,190,5900,1,1,1
0,191,3880,1,1,1
0,192,2480,1,1,1
0,193,1940,1,1,1
0,194,2000,1,1,1
0,195,1500,1,1,1
0,196,6680,1,1,1
0,197,2480,1,1,1
0,198,3030,-1,1,1
0,199,3970,1,1,1
0,200,3150,1,1,1
0,201,1730,1,1,1
0,202,3550,1,1,1
0,203,7540,1,1,1
0,204,2130,-1,1,1
0,205,1210,-1,1,1
0,206,1370,-1,1,1
0,207,1280,1,1,1
0,208,550,-1,1,1
0,209,4740,1,1,1
0,210,2370,1,1,1
0,211,2880,-1,1,1
0,212,1890,1,1,1
0,213,8720,1,1,1
0,214,6190,1,1,1
0,215,1450,1,1,1
0,216,1910,1,1,1
0,217,1280,1,1,1
0,218,1540,1,1,1
0,219,1690,1,1,1
0,220,6270,1,1,1
0,221,2310,-1,1,1
0,222,3900,1,1,1
0,223,2750,1,1,1
0,224,6320,1,1,1
0,225,3140,-1,1,1
0,226,3270,1,1,1
0,227,4540,1,1,1
0,228,5310,1,1,1
0,229,1050,1,1,1
0,230,2570,-1,1,1
0,231,7190,1,1,1
0,232,910,-1,1,1
0,233,1820,1,1,1
0,234,3910,1,1,1
0,235,890,-1,1,1
0,236,4490,1,1,1
0,237,560,1,1,1
0,238,4660,-1,1,1
0,239,1490,1,1,1
0,240,1860,1,1,1
0,241,1160,1,1,1
0,242,1450,1,1,1
0,243,3400,1,1,1
0,244,5510,-1,1,1
0,245,3050,1,1,1
0,246,12640,-1,1,1
0,247,1700,1,1,1
0,248,1640,1,1,1
0,249,930,-1,1,1
0,250,3950,1,1,1
0,251,4730,1,1,1
0,252,2790,1,1,1
0,253,5190,1,1,1
0,254,1530,-1,1,1
0,255,2140,1,1,1
0,256,2710,1,1,1
0,257,1570,1,1,1
0,258,800,1,1,1
0,259,660,-1,1,1
0,260,1920,1,1,1
0,261,1480,1,1,1
0,262,2010,1,1,1
0,263,1680,1,1,1
0,264,1460,1,1,1
0,265,2530,1,1,1
0,266,5010,1,1,1
0,267,3060,1,1,1
0,268,4600,1,1,1
0,269,1670,-1,1,1
0,270,1990,1,1,1
0,271,1200,1,1,1
0,272,950,1,1,1
0,273,7940,1,1,1
0,274,3100,1,1,1
0,275,3330,-1,1,1
0,276,9380,1,1,1
0,277,11700,1,1,1
0,278,2020,1,1,1
0,279,2900,1,1,1
0,280,1850,1,1,1
0,281,5990,1,1,1
0,282,2120,1,1,1
0,283,1710,1,1,1
0,284,1090,-1,1,1
0,285,840,1,1,1
0,286,590,1,1,1
0,287,2150,-1,1,1
0,288,9180,-1,1,1
0,289,1490,1,1,1
0,290,2140,1,1,1
0,291,540,1,1,1
0,292,8440,1,1,1
0,293,4920,1,1,1
0,294,6150,1,1,1
0,295,2600,1,1,1
0,296,2830,-1,1,1
0,297,5180,-1,1,1
0,298,4220,1,1,1
0,299,1630,1,1,1
0,300,660,1,1,1
0,301,1620,1,1,1
0,302,1220,-1,1,1
0,303,9140,1,1,1
0,304,1510,1,1,1
0,305,1580,-1,1,1
0,306,400,-1,1,1
0,307,840,1,1,1
0,308,1030,-1,1,1
0,309,2070,1,1,1
0,310,4210,1,1,1
0,311,1500,1,1,1
0,312,5000,1,1,1
0,313,1110,1,1,1
0,314,2770,1,1,1
0,315,980,1,1,1
0,316,8960,1,1,1
0,317,2990,1,1,1
0,318,4990,1,1,1
0,319,3220,1,1,1
0,320,5990,1,1,1
0,321,4030,-1,1,1
0,322,5040,-1,1,1
0,323,5080,1,1,1
0,324,3330,1,1,1
0,325,1260,-1,1,1
0,326,1670,1,1,1
0,327,1130,-1,1,1
0,328,4460,-1,1,1
0,329,3470,1,1,1
0,330,4660,1,1,1
0,331,2060,1,1,1
0,332,2240,1,1,1
0,333,4090,1,1,1
0,334,5300,1,1,1
0,335,4560,1,1,1
0,336,1160,-1,1,1
0,337,4280,1,1,1
0,338,2300,1,1,1
0,339,800,-1,1,1
0,340,2280,-1,1,1
0,341,1380,1,1,1
0,342,2450,1,1,1
0,343,2160,1,1,1
0,344,5110,1,1,1
0,345,4190,1,1,1
0,346,4970,1,1,1
0,347,1810,1,1,1
0,348,4300,1,1,1
0,349,500,1,1,1
0,350,4450,1,1,1
0,351,1120,1,1,1
0,352,1840,1,1,1
0,353,2810,1,1,1
0,354,9330,1,1,1
0,355,1220,1,1,1
0,356,1390,1,1,1
0,357,1190,1,1,1
0,358,3320,1,1,1
0,359,370,1,1,1
0,360,1770,1,1,1
0,361,3580,1,1,1
0,362,3950,1,1,1
0,363,2890,-1,1,1
0,364,3770,1,1,1
0,365,2140,1,1,1
0,366,1110,1,1,1
0,367,6530,1,1,1
0,368,6590,1,1,1
0,369,3460,-1,1,1
0,370,6720,1,1,1
0,371,3810,1,1,1
0,372,770,1,1,1
0,373,2140,1,1,1
0,374,3990,-1,1,1
0,375,1710,1,1,1
0,376,2010,1,1,1
0,377,2450,1,1,1
0,378,1770,1,1,1
0,379,2310,1,1,1
0,380,3690,1,1,1
0,381,2030,1,1,1
0,382,4130,1,1,1
0,383,1350,1,1,1
0,384,4480,-1,1,1
0,385,4720,1,1,1
0,386,1040,-1,1,1
0,387,990,1,1,1
0,388,1440,1,1,1
0,389,1970,1,1,1
0,390,1940,1,1,1
0,391,1220,1,1,1
0,392,1420,1,1,1
0,393,1950,1,1,1
0,394,1110,1,1,1
0,395,870,-1,1,1
0,396,1820,1,1,1
0,397,1850,1,1,1
0,398,5210,1,1,1
0,399,8430,1,1,1
0,400,2270,1,-1,-1
0,401,1210,1,-1,-1
0,402,1240,1,-1,-1
0,403,650,1,-1,-1
0,404,2510,-1,-1,-1
0,405,1170,-1,-1,-1
0,406,2300,1,-1,-1
0,407,3140,1,-1,-1
0,408,1240,1,-1,-1
0,409,2470,1,-1,-1
0,410,1040,1,-1,-1
0,411,4200,-1,-1,-1
0,412,3070,-1,-1,-1
0,413,4660,-1,-1,-1
0,414,7200,1,-1,-1
0,415,1470,-1,-1,-1
0,416,4140,-1,-1,-1
0,417,26180,-1,-1,-1
0,418,2400,1,-1,-1
0,419,3160,1,-1,-1
0,420,7310,-1,-1,-1
0,421,3260,1,-1,-1
0,422,1250,-1,-1,-1
0,423,9890,-1,-1,-1
0,424,2070,1,-1,-1
0,425,4100,-1,-1,-1
0,426,420,1,-1,-1
0,427,3960,-1,-1,-1
0,428,1280,1,-1,-1
0,429,1830,-1,-1,-1
0,430,2450,-1,-1,-1
0,431,1000,1,-1,-1
0,432,8030,-1,-1,-1
0,433,2370,1,-1,-1
0,434,2600,1,-1,-1
0,435,1820,-1,-1,-1
0,436,4820,-1,-1,-1
0,437,920,1,-1,-1
0,438,2000,1,-1,-1
0,439,990,-1,-1,-1
0,440,3080,-1,-1,-1
0,441,2180,1,-1,-1
0,442,5970,-1,-1,-1
0,443,5160,-1,-1,-1
0,444,1640,1,-1,-1
0,445,2940,1,-1,-1
0,446,2340,1,-1,-1
0,447,5350,-1,-1,-1
0,448,4790,1,-1,-1
0,449,750,1,-1,-1
0,450,2090,1,-1,-1
0,451,500,-1,-1,-1
0,452,5740,1,-1,-1
0,453,13530,1,-1,-1
0,454,10110,-1,-1,-1
0,455,2250,1,-1,-1
0,456,3510,1,-1,-1
0,457,6560,1,-1,-1
0,458,4600,-1,-1,-1
0,459,4820,-1,-1,-1
0,460,10340,-1,-1,-1
0,461,2350,1,-1,-1
0,462,6920,1,-1,-1
0,463,3400,1,-1,-1
0,464,3870,-1,-1,-1
0,465,3910,1,-1,-1
0,466,2340,-1,-1,-1
0,467,13460,1,-1,-1
0,468,5240,1,-1,-1
0,469,6710,-1,-1,-1
0,470,11070,-1,-1,-1
0,471,2260,1,-1,-1
0,472,940,1,-1,-1
0,473,2060,-1,-1,-1
0,474,5440,-1,-1,-1
0,475,500,1,-1,-1
0,476,1880,1,-1,-1
0,477,3390,1,-1,-1
0,478,2100,-1,-1,-1
0,479,7300,1,-1,-1
0,480,620,1,-1,-1
0,481,1930,1,-1,-1
0,482,1080,-1,-1,-1
0,483,9390,-1,-1,-1
0,484,5100,-1,-1,-1
0,485,5670,-1,-1,-1
0,486,4900,-1,-1,-1
0,487,1370,-1,-1,-1
0,488,2480,1,-1,-1
0,489,4460,1,-1,-1
0,490,4980,1,-1,-1
0,491,1860,-1,-1,-1
0,492,21110,-1,-1,-1
0,493,3690,1,-1,-1
0,494,4040,-1,-1,-1
0,495,2150,-1,-1,-1
0,496,8070,1,-1,-1
0,497,12870,-1,-1,-1
0,498,1860,1,-1,-1
0,499,2950,-1,-1,-1
0,500,1570,1,-1,-1
0,501,3600,1,-1,-1
0,502,2590,1,-1,-1
0,503,1690,1,-1,-1
0,504,2150,-1,-1,-1
0,505,940,-1,-1,-1
0,506,1490,1,-1,-1
0,507,2340,1,-1,-1
0,508,13070,1,-1,-1
0,509,3300,1,-1,-1
0,510,2350,-1,-1,-1
0,511,5030,1,-1,-1
0,512,3900,-1,-1,-1
0,513,1140,-1,-1,-1
0,514,3340,-1,-1,-1
0,515,4840,1,-1,-1
0,516,3170,-1,-1,-1
0,517,8930,-1,-1,-1
0,518,7390,1,-1,-1
0,519,3160,1,-1,-1
0,520,10840,1,-1,-1
0,521,4340,-1,-1,-1
0,522,7490,1,-1,-1
0,523,2670,-1,-1,-1
0,524,10240,-1,-1,-1
0,525,3080,1,-1,-1
0,526,2040,1,-1,-1
0,527,1220,1,-1,-1
0,528,2130,-1,-1,-1
0,529,1920,-1,-1,-1
0,530,1030,1,-1,-1
0,531,9120,-1,-1,-1
0,532,5500,-1,-1,-1
0,533,7370,1,-1,-1
0,534,790,1,-1,-1
0,535,2250,1,-1,-1
0,536,1660,-1,-1,-1
0,537,2560,1,-1,-1
0,538,5770,1,-1,-1
0,539,2780,1,-1,-1
0,540,2160,1,-1,-1
0,541,2710,1,-1,-1
0,542,1790,-1,-1,-1
0,543,11930,-1,-1,-1
0,544,3030,1,-1,-1
0,545,4250,-1,-1,-1
0,546,2290,1,-1,-1
0,547,7350,-1,-1,-1
0,548,9230,1,-1,-1
0,549,1630,1,-1,-1
0,550,11110,1,-1,-1
0,551,4660,-1,-1,-1
0,552,10920,-1,-1,-1
0,553,3030,1,-1,-1
0,554,5970,1,-1,-1
0,555,2430,-1,-1,-1
0,556,2210,-1,-1,-1
0,557,710,1,-1,-1
0,558,3090,1,-1,-1
0,559,2400,-1,-1,-1
0,560,2620,1,-1,-1
0,561,5740,-1,-1,-1
0,562,2080,-1,-1,-1
0,563,6000,1,-1,-1
0,564,2890,-1,-1,-1
0,565,1780,-1,-1,-1
0,566,990,1,-1,-1
0,567,630,-1,-1,-1
0,568,1100,1,-1,-1
0,569,11640,-1,-1,-1
0,570,4520,1,-1,-1
0,571,6370,-1,-1,-1
0,572,1780,1,-1,-1
0,573,1800,1,-1,-1
0,574,3060,-1,-1,-1
0,575,3310,1,-1,-1
0,576,1390,1,-1,-1
0,577,3390,1,-1,-1
0,578,5870,1,-1,-1
0,579,4320,-1,-1,-1
0,580,5210,1,-1,-1
0,581,670,1,-1,-1
0,582,1110,1,-1,-1
0,583,1860,1,-1,-1
0,584,4030,1,-1,-1
0,585,1000,1,-1,-1
0,586,3490,1,-1,-1
0,587,610,1,-1,-1
0,588,2160,1,-1,-1
0,589,4610,1,-1,-1
0,590,3240,1,-1,-1
0,591,5440,1,-1,-1
0,592,1270,-1,-1,-1
0,593,4560,1,-1,-1
0,594,3590,-1,-1,-1
0,595,9560,1,-1,-1
0,596,2020,1,-1,-1
0,597,2420,1,-1,-1
0,598,5150,1,-1,-1
0,599,7000,1,-1,-1
0,600,3020,1,-1,-1
0,601,1420,-1,-1,-1
0,602,3160,1,-1,-1
0,603,4930,1,-1,-1
0,604,3720,-1,-1,-1
0,605,3000,-1,-1,-1
0,606,1820,1,-1,-1
0,607,2540,1,-1,-1
0,608,1010,-1,-1,-1
0,609,1090,-1,-1,-1
0,610,4270,-1,-1,-1
0,611,630,1,-1,-1
0,612,4160,-1,-1,-1
0,613,15850,1,-1,-1
0,614,2720,1,-1,-1
0,615,4710,-1,-1,-1
0,616,6010,-1,-1,-1
0,617,550,1,-1,-1
0,618,10550,-1,-1,-1
0,619,14560,-1,-1,-1
0,620,16220,1,-1,-1
0,621,2660,1,-1,-1
0,622,4490,-1,-1,-1
0,623,4800,-1,-1,-1
0,624,4430,-1,-1,-1
0,625,5220,-1,-1,-1
0,626,2260,-1,-1,-1
0,627,1400,1,-1,-1
0,628,6390,-1,-1,-1
0,629,2320,1,-1,-1
0,630,8910,-1,-1,-1
0,631,2440,-1,-1,-1
0,632,21950,1,-1,-1
0,633,11360,1,-1,-1
0,634,3440,1,-1,-1
0,635,1310,1,-1,-1
0,636,2720,1,-1,-1
0,637,3550,1,-1,-1
0,638,3910,-1,-1,-1
0,639,4430,-1,-1,-1
0,640,2710,1,-1,-1
0,641,3950,1,-1,-1
0,642,4710,-1,-1,-1
0,643,1780,-1,-1,-1
0,644,8270,1,-1,-1
0,645,6750,-1,-1,-1
0,646,2040,1,-1,-1
0,647,1320,-1,-1,-1
0,648,4280,1,-1,-1
0,649,6670,-1,-1,-1
0,650,1950,1,-1,-1
0,651,2230,-1,-1,-1
0,652,1170,1,-1,-1
0,653,9740,-1,-1,-1
0,654,5380,1,-1,-1
0,655,1520,-1,-1,-1
0,656,2630,1,-1,-1
0,657,3860,1,-1,-1
0,658,3190,1,-1,-1
0,659,14880,-1,-1,-1
0,660,2440,1,-1,-1
0,661,900,1,-1,-1
0,662,2590,1,-1,-1
0,663,5370,1,-1,-1
0,664,7640,-1,-1,-1
0,665,1100,1,-1,-1
0,666,1400,1,-1,-1
0,667,19320,1,-1,-1
0,668,1590,-1,-1,-1
0,669,5090,-1,-1,-1
0,670,2490,1,-1,-1
0,671,3950,1,-1,-1
0,672,630,1,-1,-1
0,673,3780,-1,-1,-1
0,674,2880,1,-1,-1
0,675,1550,-1,-1,-1
0,676,3290,1,-1,-1
0,677,9960,1,-1,-1
0,678,1350,-1,-1,-1
0,679,1040,1,-1,-1
0,680,10110,-1,-1,-1
0,681,1490,1,-1,-1
0,682,1300,1,-1,-1
0,683,1950,1,-1,-1
0,684,1670,-1,-1,-1
0,685,2060,-1,-1,-1
0,686,10410,-1,-1,-1
0,687,4070,-1,-1,-1
0,688,5270,-1,-1,-1
0,689,1560,1,-1,-1
0,690,1760,1,-1,-1
0,691,4040,-1,-1,-1
0,692,9050,-1,-1,-1
0,693,930,1,-1,-1
0,694,1300,-1,-1,-1
0,695,10830,1,-1,-1
0,696,6550,1,-1,-1
0,697,2170,-1,-1,-1
0,698,1230,1,-1,-1
0,699,3310,1,-1,-1
0,700,1630,-1,-1,-1
0,701,2460,1,-1,-1
0,702,3500,1,-1,-1
0,703,3620,-1,-1,-1
0,704,1680,-1,-1,-1
0,705,6220,1,-1,-1
0,706,3600,1,-1,-1
0,707,10330,1,-1,-1
0,708,6290,1,-1,-1
0,709,2370,-1,-1,-1
0,710,2930,-1,-1,-1
0,711,4610,-1,-1,-1
0,712,4320,-1,-1,-1
0,713,1390,-1,-1,-1
0,714,4980,1,-1,-1
0,715,1640,1,-1,-1
0,716,12290,1,-1,-1
0,717,1530,-1,-1,-1
0,718,3470,1,-1,-1
0,719,10140,1,-1,-1
0,720,3480,-1,-1,-1
0,721,4580,-1,-1,-1
0,722,4840,-1,-1,-1
0,723,1080,1,-1,-1
0,724,1160,1,-1,-1
0,725,2210,1,-1,-1
0,726,5350,1,-1,-1
0,727,3020,1,-1,-1
0,728,3830,1,-1,-1
0,729,2490,-1,-1,-1
0,730,11390,1,-1,-1
0,731,2180,-1,-1,-1
0,732,1710,-1,-1,-1
0,733,3230,1,-1,-1
0,734,5790,1,-1,-1
0,735,1850,-1,-1,-1
0,736,3110,1,-1,-1
0,737,7810,-1,-1,-1
0,738,1350,-1,-1,-1
0,739,2690,1,-1,-1
0,740,1050,1,-1,-1
0,741,3220,-1,-1,-1
0,742,3790,-1,-1,-1
0,743,2380,-1,-1,-1
0,744,2670,1,-1,-1
0,745,1530,-1,-1,-1
0,746,1400,1,-1,-1
0,747,4560,-1,-1,-1
0,748,11170,-1,-1,-1
0,749,2020,-1,-1,-1
0,750,2900,1,-1,-1
0,751,3860,-1,-1,-1
0,752,1940,-1,-1,-1
0,753,4350,-1,-1,-1
0,754,2840,1,-1,-1
0,755,3010,1,-1,-1
0,756,4860,-1,-1,-1
0,757,4100,-1,-1,-1
0,758,8740,-1,-1,-1
0,759,3950,1,-1,-1
0,760,2840,1,-1,-1
0,761,1090,-1,-1,-1
0,762,1420,1,-1,-1
0,763,14470,-1,-1,-1
0,764,5040,1,-1,-1
0,765,2300,-1,-1,-1
0,766,2480,-1,-1,-1
0,767,880,-1,-1,-1
0,768,1080,-1,-1,-1
0,769,3470,-1,-1,-1
0,770,5830,1,-1,-1
0,771,890,1,-1,-1
0,772,4690,-1,-1,-1
0,773,6330,1,-1,-1
0,774,13380,-1,-1,-1
0,775,4280,1,-1,-1
0,776,15440,-1,-1,-1
0,777,1440,1,-1,-1
0,778,3350,1,-1,-1
0,779,1590,-1,-1,-1
0,780,2780,-1,-1,-1
0,781,2200,1,-1,-1
0,782,3640,1,-1,-1
0,783,820,1,-1,-1
0,784,2790,1,-1,-1
0,785,2000,1,-1,-1
0,786,10670,1,-1,-1
0,787,1000,1,-1,-1
0,788,10450,1,-1,-1
0,789,11430,1,-1,-1
0,790,4850,-1,-1,-1
0,791,4830,1,-1,-1
0,792,660,1,-1,-1
0,793,4220,-1,-1,-1
0,794,1350,1,-1,-1
0,795,3700,1,-1,-1
0,796,13190,1,-1,-1
0,797,1700,1,-1,-1
0,798,1800,1,-1,-1
0,799,660,1,-1,-1
0,800,2780,-1,-1,-1
0,801,3900,-1,-1,-1
0,802,2030,-1,-1,-1
0,803,13030,1,-1,-1
0,804,3800,-1,-1,-1
0,805,2870,-1,-1,-1
0,806,9460,1,-1,-1
0,807,6110,-1,-1,-1
0,808,770,-1,-1,-1
0,809,17300,-1,-1,-1
0,810,5720,-1,-1,-1
0,811,12670,-1,-1,-1
0,812,4120,-1,-1,-1
0,813,4150,1,-1,-1
0,814,1550,-1,-1,-1
0,815,6330,-1,-1,-1
0,816,2030,-1,-1,-1
0,817,4900,1,-1,-1
0,818,9690,1,-1,-1
0,819,7020,1,-1,-1
0,820,3530,-1,-1,-1
0,821,4340,1,-1,-1
0,822,2490,1,-1,-1
0,823,3180,-1,-1,-1
0,824,1170,1,-1,-1
0,825,3070,1,-1,-1
0,826,2270,-1,-1,-1
0,827,3130,1,-1,-1
0,828,3550,1,-1,-1
0,829,1790,-1,-1,-1
0,830,2970,1,-1,-1
0,831,3430,1,-1,-1
0,832,4210,-1,-1,-1
0,833,900,1,-1,-1
0,834,3770,1,-1,-1
0,835,2800,1,-1,-1
0,836,1180,-1,-1,-1
0,837,2520,-1,-1,-1
0,838,8600,1,-1,-1
0,839,1660,-1,-1,-1
0,840,2220,1,-1,-1
0,841,2040,-1,-1,-1
0,842,1080,1,-1,-1
0,843,1300,1,-1,-1
0,844,8630,-1,-1,-1
0,845,1280,1,-1,-1
0,846,12050,-1,-1,-1
0,847,3180,-1,-1,-1
0,848,2390,-1,-1,-1
0,849,580,1,-1,-1
0,850,1410,-1,-1,-1
0,851,12150,1,-1,-1
0,852,5580,-1,-1,-1
0,853,740,1,-1,-1
0,854,7570,-1,-1,-1
0,855,3110,1,-1,-1
0,856,580,1,-1,-1
0,857,2810,1,-1,-1
0,858,6750,-1,-1,-1
0,859,890,1,-1,-1
0,860,740,1,-1,-1
0,861,2260,-1,-1,-1
0,862,1160,-1,-1,-1
0,863,1810,1,-1,-1
0,864,3200,-1,-1,-1
0,865,1850,-1,-1,-1
0,866,1130,-1,-1,-1
0,867,1620,1,-1,-1
0,868,790,1,-1,-1
0,869,1220,-1,-1,-1
0,870,11970,-1,-1,-1
0,871,1040,-1,-1,-1
0,872,2570,-1,-1,-1
0,873,4610,-1,-1,-1
0,874,420,-1,-1,-1
0,875,1950,1,-1,-1
0,876,3130,1,-1,-1
0,877,2700,1,-1,-1
0,878,2420,1,-1,-1
0,879,3510,-1,-1,-1
0,880,1300,1,-1,-1
0,881,1300,-1,-1,-1
0,882,2870,1,-1,-1
0,883,7260,-1,-1,-1
0,884,9670,1,-1,-1
0,885,2270,-1,-1,-1
0,886,8690,-1,-1,-1
0,887,1690,-1,-1,-1
0,888,5500,-1,-1,-1
0,889,820,-1,-1,-1
0,890,3910,-1,-1,-1
0,891,1780,-1,-1,-1
0,892,4930,-1,-1,-1
0,893,890,1,-1,-1
0,894,8600,-1,-1,-1
0,895,2850,-1,-1,-1
0,896,8640,-1,-1,-1
0,897,3130,1,-1,-1
0,898,2660,1,-1,-1
0,899,1840,-1,-1,-1
0,900,710,-1,-1,-1
0,901,4460,1,-1,-1
0,902,1460,-1,-1,-1
0,903,3550,1,-1,-1
0,904,3890,-1,-1,-1
0,905,1640,1,-1,-1
0,906,4320,-1,-1,-1
0,907,880,1,-1,-1
0,908,3250,-1,-1,-1
0,909,13200,-1,-1,-1
0,910,3730,-1,-1,-1
0,911,1130,1,-1,-1
0,912,1710,-1,-1,-1
0,913,1980,1,-1,-1
0,914,5400,1,-1,-1
0,915,5180,1,-1,-1
0,916,870,1,-1,-1
0,917,4560,-1,-1,-1
0,918,1850,1,-1,-1
0,919,1770,-1,-1,-1
0,920,790,-1,-1,-1
0,921,2370,-1,-1,-1
0,922,3160,1,-1,-1
0,923,1260,-1,-1,-1
0,924,2130,-1,-1,-1
0,925,4800,-1,-1,-1
0,926,4510,-1,-1,-1
0,927,1220,1,-1,-1
0,928,1450,-1,-1,-1
0,929,3200,1,-1,-1
0,930,7620,-1,-1,-1
0,931,2440,-1,-1,-1
0,932,10630,1,-1,-1
0,933,4190,-1,-1,-1
0,934,3080,1,-1,-1
0,935,3140,1,-1,-1
0,936,2950,-1,-1,-1
0,937,590,1,-1,-1
0,938,4310,-1,-1,-1
0,939,7600,1,-1,-1
0,940,1160,1,-1,-1
0,941,3970,-1,-1,-1
0,942,2310,-1,-1,-1
0,943,1060,1,-1,-1
0,944,5280,-1,-1,-1
0,945,8680,-1,-1,-1
0,946,3090,1,-1,-1
0,947,3530,1,-1,-1
0,948,1150,1,-1,-1
0,949,850,1,-1,-1
0,950,3680,-1,-1,-1
0,951,4420,1,-1,-1
0,952,3740,1,-1,-1
0,953,7340,-1,-1,-1
0,954,6730,1,-1,-1
0,955,5820,-1,-1,-1
0,956,1390,-1,-1,-1
0,957,5420,-1,-1,-1
0,958,1740,-1,-1,-1
0,959,6060,-1,-1,-1
0,960,6780,-1,-1,-1
0,961,1850,1,-1,-1
0,962,4040,-1,-1,-1
0,963,1020,1,-1,-1
0,964,2340,1,-1,-1
0,965,3440,-1,-1,-1
0,966,6640,-1,-1,-1
0,967,1600,-1,-1,-1
0,968,410,1,-1,-1
0,969,10930,-1,-1,-1
0,970,6080,-1,-1,-1
0,971,3850,-1,-1,-1
0,972,5840,1,-1,-1
0,973,980,1,-1,-1
0,974,930,1,-1,-1
0,975,6320,1,-1,-1
0,976,9000,1,-1,-1
0,977,2510,-1,-1,-1
0,978,4740,-1,-1,-1
0,979,4350,1,-1,-1
0,980,2120,-1,-1,-1
0,981,7390,1,-1,-1
0,982,4890,-1,-1,-1
0,983,4960,-1,-1,-1
0,984,1810,-1,-1,-1
0,985,4010,1,-1,-1
0,986,6450,1,-1,-1
0,987,2020,1,-1,-1
0,988,1160,1,-1,-1
0,989,7650,1,-1,-1
0,990,2530,-1,-1,-1
0,991,1070,1,-1,-1
0,992,3740,-1,-1,-1
0,993,2180,-1,-1,-1
0,994,2490,-1,-1,-1
0,995,2650,-1,-1,-1
0,996,490,1,-1,-1
0,997,2080,-1,-1,-1
0,998,2440,-1,-1,-1
0,999,6490,-1,-1,-1
0,1000,4820,-1,-1,-1
0,1001,7840,1,-1,-1
0,1002,7970,-1,-1,-1
0,1003,3330,-1,-1,-1
0,1004,1740,1,-1,-1
0,1005,3760,-1,-1,-1
0,1006,440,1,-1,-1
0,1007,4040,-1,-1,-1
0,1008,2300,1,-1,-1
0,1009,930,1,-1,-1
0,1010,3140,1,-1,-1
0,1011,2850,-1,-1,-1
0,1012,5610,1,-1,-1
0,1013,420,-1,-1,-1
0,1014,4900,1,-1,-1
0,1015,1270,1,-1,-1
0,1016,4030,-1,-1,-1
0,1017,4510,1,-1,-1
0,1018,2640,1,-1,-1
0,1019,6970,1,-1,-1
0,1020,7320,-1,-1,-1
0,1021,5290,1,-1,-1
0,1022,2220,-1,-1,-1
0,1023,4320,1,-1,-1
0,1024,1610,1,-1,-1
0,1025,5930,-1,-1,-1
0,1026,2250,1,-1,-1
0,1027,7130,-1,-1,-1
0,1028,1720,-1,-1,-1
0,1029,1620,1,-1,-1
0,1030,1340,1,-1,-1
0,1031,3880,1,-1,-1
0,1032,3740,-1,-1,-1
0,1033,2820,-1,-1,-1
0,1034,10620,1,-1,-1
0,1035,790,1,-1,-1
0,1036,5750,-1,-1,-1
0,1037,710,1,-1,-1
0,1038,3760,-1,-1,-1
0,1039,2420,-1,-1,-1
0,1040,6680,-1,-1,-1
0,1041,2360,-1,-1,-1
0,1042,1040,-1,-1,-1
0,1043,800,1,-1,-1
0,1044,1950,-1,-1,-1
0,1045,1760,1,-1,-1
0,1046,4410,-1,-1,-1
0,1047,2940,-1,-1,-1
0,1048,1260,1,-1,-1
0,1049,670,1,-1,-1
0,1050,1680,1,-1,-1
0,1051,2500,-1,-1,-1
0,1052,2330,-1,-1,-1
0,1053,4150,-1,-1,-1
0,1054,770,1,-1,-1
0,1055,8840,1,-1,-1
0,1056,3720,-1,-1,-1
0,1057,3280,-1,-1,-1
0,1058,710,1,-1,-1
0,1059,3460,-1,-1,-1
0,1060,1500,-1,-1,-1
0,1061,720,1,-1,-1
0,1062,4140,-1,-1,-1
0,1063,2730,1,-1,-1
0,1064,1780,-1,-1,-1
0,1065,2440,-1,-1,-1
0,1066,8190,-1,-1,-1
0,1067,1160,-1,-1,-1
0,1068,2560,1,-1,-1
0,1069,1190,1,-1,-1
0,1070,20950,-1,-1,-1
0,1071,2010,1,-1,-1
0,1072,2250,-1,-1,-1
0,1073,1510,-1,-1,-1
0,1074,2710,1,-1,-1
0,1075,2510,-1,-1,-1
0,1076,11530,-1,-1,-1
0,1077,3340,1,-1,-1
0,1078,5720,1,-1,-1
0,1079,6670,-1,-1,-1
0,1080,770,1,-1,-1
0,1081,3590,-1,-1,-1
0,1082,1110,-1,-1,-1
0,1083,1470,-1,-1,-1
0,1084,1240,1,-1,-1
0,1085,2670,1,-1,-1
0,1086,5340,-1,-1,-1
0,1087,1570,1,-1,-1
0,1088,1410,1,-1,-1
0,1089,3710,-1,-1,-1
0,1090,9460,-1,-1,-1
0,1091,8600,-1,-1,-1
0,1092,4320,-1,-1,-1
0,1093,2770,1,-1,-1
0,1094,2410,-1,-1,-1
0,1095,1770,-1,-1,-1
0,1096,4100,-1,-1,-1
0,1097,960,1,-1,-1
0,1098,2520,-1,-1,-1
0,1099,3440,-1,-1,-1
0,1100,4480,1,-1,-1
0,1101,5160,-1,-1,-1
0,1102,4560,-1,-1,-1
0,1103,8830,-1,-1,-1
0,1104,11580,1,-1,-1
0,1105,5170,-1,-1,-1
0,1106,2750,1,-1,-1
0,1107,3360,1,-1,-1
0,1108,1190,1,-1,-1
0,1109,920,1,-1,-1
0,1110,1150,1,-1,-1
0,1111,7590,1,-1,-1
0,1112,1150,-1,-1,-1
0,1113,2090,1,-1,-1
0,1114,740,1,-1,-1
0,1115,1970,-1,-1,-1
0,1116,6640,1,-1,-1
0,1117,4670,1,-1,-1
0,1118,2580,-1,-1,-1
0,1119,1290,-1,-1,-1
0,1120,1610,-1,-1,-1
0,1121,6470,-1,-1,-1
0,1122,5050,-1,-1,-1
0,1123,11810,1,-1,-1
0,1124,13770,-1,-1,-1
0,1125,1510,1,-1,-1
0,1126,1310,-1,-1,-1
0,1127,440,-1,-1,-1
0,1128,1700,1,-1,-1
0,1129,5530,1,-1,-1
0,1130,3180,1,-1,-1
0,1131,3030,-1,-1,-1
0,1132,1780,-1,-1,-1
0,1133,2470,-1,-1,-1
0,1134,8020,1,-1,-1
0,1135,1150,1,-1,-1
0,1136,3880,-1,-1,-1
0,1137,1220,1,-1,-1
0,1138,10220,1,-1,-1
0,1139,760,-1,-1,-1
0,1140,3850,-1,-1,-1
0,1141,3440,-1,-1,-1
0,1142,780,1,-1,-1
0,1143,7120,-1,-1,-1
0,1144,2710,-1,-1,-1
0,1145,5470,1,-1,-1
0,1146,2070,-1,-1,-1
0,1147,7050,-1,-1,-1
0,1148,1770,1,-1,-1
0,1149,3730,1,-1,-1
0,1150,5720,-1,-1,-1
0,1151,2500,-1,-1,-1
0,1152,1990,1,-1,-1
0,1153,2780,1,-1,-1
0,1154,2780,-1,-1,-1
0,1155,9350,-1,-1,-1
0,1156,4500,1,-1,-1
0,1157,820,-1,-1,-1
0,1158,600,1,-1,-1
0,1159,3370,-1,-1,-1
0,1160,1960,1,-1,-1
0,1161,1290,-1,-1,-1
0,1162,12850,-1,-1,-1
0,1163,1720,-1,-1,-1
0,1164,450,1,-1,-1
0,1165,9120,-1,-1,-1
0,1166,1560,-1,-1,-1
0,1167,2140,-1,-1,-1
0,1168,1910,-1,-1,-1
0,1169,3440,-1,-1,-1
0,1170,1900,1,-1,-1
0,1171,7990,1,-1,-1
0,1172,1870,-1,-1,-1
0,1173,4810,-1,-1,-1
0,1174,3710,-1,-1,-1
0,1175,6470,-1,-1,-1
0,1176,3980,1,-1,-1
0,1177,3390,-1,-1,-1
0,1178,5770,1,-1,-1
0,1179,630,-1,-1,-1
0,1180,9150,-1,-1,-1
0,1181,1730,-1,-1,-1
0,1182,1440,1,-1,-1
0,1183,6180,-1,-1,-1
0,1184,15290,-1,-1,-1
0,1185,450,1,-1,-1
0,1186,1220,1,-1,-1
0,1187,620,1,-1,-1
0,1188,3430,-1,-1,-1
0,1189,2880,-1,-1,-1
0,1190,860,1,-1,-1
0,1191,2200,-1,-1,-1
0,1192,700,1,-1,-1
0,1193,890,1,-1,-1
0,1194,4350,1,-1,-1
0,1195,1820,1,-1,-1
0,1196,2390,-1,-1,-1
0,1197,3110,-1,-1,-1
0,1198,14140,-1,-1,-1
0,1199,2620,1,-1,-1
0,1200,17440,-1,0,-1
0,1201,5270,1,0,-1
0,1202,1140,-1,0,-1
0,1203,14710,1,0,-1
0,1204,3620,-1,0,-1
0,1205,9710,1,0,-1
0,1206,4160,-1,0,-1
0,1207,2340,-1,0,-1
0,1208,700,1,0,-1
0,1209,1160,1,0,-1
0,1210,1460,1,0,-1
0,1211,830,-1,0,-1
0,1212,9860,1,0,-1
0,1213,5800,-1,0,-1
0,1214,3180,-1,0,-1
0,1215,27580,1,0,-1
0,1216,4690,-1,0,-1
0,1217,4440,1,0,-1
0,1218,10490,1,0,-1
0,1219,4260,1,0,-1
0,1220,3120,-1,0,-1
0,1221,570,1,0,-1
0,1222,8360,1,0,-1
0,1223,820,-1,0,-1
0,1224,1090,-1,0,-1
0,1225,1130,1,0,-1
0,1226,1040,-1,0,-1
0,1227,4430,1,0,-1
0,1228,3380,-1,0,-1
0,1229,660,1,0,-1
0,1230,420,-1,0,-1
0,1231,1000,1,0,-1
0,1232,7650,-1,0,-1
0,1233,1520,-1,0,-1
0,1234,1570,-1,0,-1
0,1235,1900,1,0,-1
0,1236,1280,-1,0,-1
0,1237,7300,1,0,-1
0,1238,1420,1,0,-1
0,1239,860,-1,0,-1
0,1240,7150,-1,0,-1
0,1241,1260,1,0,-1
0,1242,3160,1,0,-1
0,1243,7130,1,0,-1
0,1244,3030,1,0,-1
0,1245,4130,-1,0,-1
0,1246,880,1,0,-1
0,1247,2660,-1,0,-1
0,1248,3940,1,0,-1
0,1249,3720,1,0,-1
0,1250,1550,1,0,-1
0,1251,2720,-1,0,-1
0,1252,4330,-1,0,-1
0,1253,3760,-1,0,-1
0,1254,3690,-1,0,-1
0,1255,10550,1,0,-1
0,1256,2870,1,0,-1
0,1257,870,1,0,-1
0,1258,5910,-1,0,-1
0,1259,5680,-1,0,-1
0,1260,2860,-1,0,-1
0,1261,4160,-1,0,-1
0,1262,3580,-1,0,-1
0,1263,5510,1,0,-1
0,1264,3850,-1,0,-1
0,1265,2840,-1,0,-1
0,1266,7810,-1,0,-1
0,1267,1010,-1,0,-1
0,1268,7640,-1,0,-1
0,1269,4110,1,0,-1
0,1270,5820,-1,0,-1
0,1271,790,1,0,-1
0,1272,12540,-1,0,-1
0,1273,6490,1,0,-1
0,1274,2790,-1,0,-1
0,1275,1330,1,0,-1
0,1276,4030,1,0,-1
0,1277,1960,-1,0,-1
0,1278,2270,-1,0,-1
0,1279,1360,1,0,-1
0,1280,4520,1,0,-1
0,1281,8130,1,0,-1
0,1282,3380,-1,0,-1
0,1283,9380,-1,0,-1
0,1284,9740,1,0,-1
0,1285,9690,1,0,-1
0,1286,780,-1,0,-1
0,1287,4870,-1,0,-1
0,1288,2800,1,0,-1
0,1289,1900,1,0,-1
0,1290,1630,-1,0,-1
0,1291,7990,-1,0,-1
0,1292,13610,-1,0,-1
0,1293,5340,1,0,-1
0,1294,5280,-1,0,-1
0,1295,1030,1,0,-1
0,1296,3450,1,0,-1
0,1297,3200,-1,0,-1
0,1298,4210,1,0,-1
0,1299,1200,-1,0,-1
0,1300,730,1,0,-1
0,1301,5880,-1,0,-1
0,1302,3480,1,0,-1
0,1303,1450,-1,0,-1
0,1304,2510,1,0,-1
0,1305,1070,1,0,-1
0,1306,2790,-1,0,-1
0,1307,7470,-1,0,-1
0,1308,4350,1,0,-1
0,1309,7490,-1,0,-1
0,1310,1730,1,0,-1
0,1311,5200,-1,0,-1
0,1312,4920,1,0,-1
0,1313,1670,-1,0,-1
0,1314,2920,1,0,-1
0,1315,1040,1,0,-1
0,1316,4970,-1,0,-1
0,1317,4980,1,0,-1
0,1318,3090,-1,0,-1
0,1319,1750,-1,0,-1
0,1320,11280,-1,0,-1
0,1321,3050,-1,0,-1
0,1322,2860,1,0,-1
0,1323,4980,1,0,-1
0,1324,6300,-1,0,-1
0,1325,7370,-1,0,-1
0,1326,6290,1,0,-1
0,1327,5210,1,0,-1
0,1328,2690,-1,0,-1
0,1329,3360,-1,0,-1
0,1330,1590,-1,0,-1
0,1331,1360,-1,0,-1
0,1332,11030,-1,0,-1
0,1333,1570,-1,0,-1
0,1334,3410,1,0,-1
0,1335,2200,1,0,-1
0,1336,10020,-1,0,-1
0,1337,5850,1,0,-1
0,1338,3300,-1,0,-1
0,1339,4080,-1,0,-1
0,1340,1200,1,0,-1
0,1341,3900,-1,0,-1
0,1342,5510,1,0,-1
0,1343,2440,-1,0,-1
0,1344,3490,-1,0,-1
0,1345,2450,-1,0,-1
0,1346,1630,1,0,-1
0,1347,1950,1,0,-1
0,1348,2100,-1,0,-1
0,1349,1580,1,0,-1
0,1350,1380,1,0,-1
0,1351,6170,-1,0,-1
0,1352,5200,1,0,-1
0,1353,900,1,0,-1
0,1354,9020,-1,0,-1
0,1355,4130,-1,0,-1
0,1356,3120,1,0,-1
0,1357,2860,1,0,-1
0,1358,3140,-1,0,-1
0,1359,12220,1,0,-1
0,1360,2140,-1,0,-1
0,1361,3650,1,0,-1
0,1362,2790,1,0,-1
0,1363,770,1,0,-1
0,1364,2220,-1,0,-1
0,1365,1640,1,0,-1
0,1366,9650,1,0,-1
0,1367,4130,1,0,-1
0,1368,9250,1,0,-1
0,1369,11120,1,0,-1
0,1370,1140,1,0,-1
0,1371,650,-1,0,-1
0,1372,1890,1,0,-1
0,1373,1070,-1,0,-1
0,1374,1510,1,0,-1
0,1375,3810,-1,0,-1
0,1376,1740,-1,0,-1
0,1377,6850,-1,0,-1
0,1378,2140,-1,0,-1
0,1379,5440,1,0,-1
0,1380,4540,1,0,-1
0,1381,4780,1,0,-1
0,1382,510,1,0,-1
0,1383,1690,-1,0,-1
0,1384,1800,-1,0,-1
0,1385,4690,-1,0,-1
0,1386,3970,-1,0,-1
0,1387,1880,-1,0,-1
0,1388,3840,-1,0,-1
0,1389,4240,-1,0,-1
0,1390,1980,-1,0,-1
0,1391,3380,1,0,-1
0,1392,4550,1,0,-1
0,1393,1460,1,0,-1
0,1394,2680,-1,0,-1
0,1395,1460,1,0,-1
0,1396,4280,-1,0,-1
0,1397,1970,-1,0,-1
0,1398,6900,-1,0,-1
0,1399,2830,-1,0,-1
0,1400,7570,-1,0,-1
0,1401,8210,1,0,-1
0,1402,2100,-1,0,-1
0,1403,6000,1,0,-1
0,1404,3130,-1,0,-1
0,1405,4880,-1,0,-1
0,1406,2180,-1,0,-1
0,1407,6260,-1,0,-1
0,1408,5260,-1,0,-1
0,1409,3140,-1,0,-1
0,1410,9380,-1,0,-1
0,1411,9280,-1,0,-1
0,1412,3270,1,0,-1
0,1413,13210,1,0,-1
0,1414,2170,-1,0,-1
0,1415,1850,-1,0,-1
0,1416,2590,-1,0,-1
0,1417,5620,-1,0,-1
0,1418,2530,1,0,-1
0,1419,3040,-1,0,-1
0,1420,9800,-1,0,-1
0,1421,2210,-1,0,-1
0,1422,2040,1,0,-1
0,1423,6020,1,0,-1
0,1424,4490,-1,0,-1
0,1425,3240,1,0,-1
0,1426,3270,1,0,-1
0,1427,1360,1,0,-1
0,1428,2630,1,0,-1
0,1429,1350,-1,0,-1
0,1430,810,1,0,-1
0,1431,5180,1,0,-1
0,1432,500,1,0,-1
0,1433,4060,-1,0,-1
0,1434,1080,1,0,-1
0,1435,2400,-1,0,-1
0,1436,6170,-1,0,-1
0,1437,5910,-1,0,-1
0,1438,4520,-1,0,-1
0,1439,2090,1,0,-1
0,1440,2500,1,0,-1
0,1441,1740,-1,0,-1
0,1442,1690,-1,0,-1
0,1443,3960,1,0,-1
0,1444,3370,-1,0,-1
0,1445,7900,1,0,-1
0,1446,3990,-1,0,-1
0,1447,4220,-1,0,-1
0,1448,2490,-1,0,-1
0,1449,4040,1,0,-1
0,1450,2250,-1,0,-1
0,1451,5640,-1,0,-1
0,1452,1520,-1,0,-1
0,1453,2910,-1,0,-1
0,1454,2790,1,0,-1
0,1455,1430,-1,0,-1
0,1456,2770,1,0,-1
0,1457,11640,1,0,-1
0,1458,14930,1,0,-1
0,1459,3960,-1,0,-1
0,1460,17900,-1,0,-1
0,1461,5090,1,0,-1
0,1462,2760,1,0,-1
0,1463,5920,-1,0,-1
0,1464,10690,1,0,-1
0,1465,1920,-1,0,-1
0,1466,1460,-1,0,-1
0,1467,1400,1,0,-1
0,1468,10580,-1,0,-1
0,1469,4060,-1,0,-1
0,1470,2010,-1,0,-1
0,1471,1970,-1,0,-1
0,1472,1490,-1,0,-1
0,1473,5900,1,0,-1
0,1474,6050,1,0,-1
0,1475,1260,1,0,-1
0,1476,1980,-1,0,-1
0,1477,4280,-1,0,-1
0,1478,1700,-1,0,-1
0,1479,3090,1,0,-1
0,1480,1800,-1,0,-1
0,1481,2130,1,0,-1
0,1482,13430,1,0,-1
0,1483,3700,1,0,-1
0,1484,4410,1,0,-1
0,1485,8240,-1,0,-1
0,1486,3260,-1,0,-1
0,1487,5280,1,0,-1
0,1488,1500,-1,0,-1
0,1489,2730,-1,0,-1
0,1490,2800,-1,0,-1
0,1491,3500,-1,0,-1
0,1492,3130,-1,0,-1
0,1493,3760,-1,0,-1
0,1494,3190,-1,0,-1
0,1495,2010,-1,0,-1
0,1496,2080,1,0,-1
0,1497,1740,-1,0,-1
0,1498,2180,-1,0,-1
0,1499,4140,-1,0,-1
0,1500,2580,1,0,-1
0,1501,2450,1,0,-1
0,1502,1430,1,0,-1
0,1503,10670,1,0,-1
0,1504,6790,-1,0,-1
0,1505,2310,-1,0,-1
0,1506,1670,-1,0,-1
0,1507,5180,-1,0,-1
0,1508,5860,1,0,-1
0,1509,5840,-1,0,-1
0,1510,2560,1,0,-1
0,1511,1130,-1,0,-1
0,1512,10690,1,0,-1
0,1513,1860,1,0,-1
0,1514,3160,-1,0,-1
0,1515,1080,1,0,-1
0,1516,1800,-1,0,-1
0,1517,5670,-1,0,-1
0,1518,9630,1,0,-1
0,1519,2160,1,0,-1
0,1520,1790,-1,0,-1
0,1521,1440,1,0,-1
0,1522,4320,-1,0,-1
0,1523,2800,1,0,-1
0,1524,8540,1,0,-1
0,1525,5680,-1,0,-1
0,1526,2990,-1,0,-1
0,1527,2830,-1,0,-1
0,1528,3580,-1,0,-1
0,1529,1880,-1,0,-1
0,1530,2660,1,0,-1
0,1531,7790,-1,0,-1
0,1532,2260,-1,0,-1
0,1533,1950,-1,0,-1
0,1534,4380,-1,0,-1
0,1535,2600,1,0,-1
0,1536,12370,-1,0,-1
0,1537,10070,-1,0,-1
0,1538,1930,1,0,-1
0,1539,450,-1,0,-1
0,1540,5000,-1,0,-1
0,1541,5900,1,0,-1
0,1542,6410,-1,0,-1
0,1543,9130,1,0,-1
0,1544,1500,-1,0,-1
0,1545,2530,-1,0,-1
0,1546,4560,-1,0,-1
0,1547,6680,-1,0,-1
0,1548,620,1,0,-1
0,1549,2600,-1,0,-1
0,1550,2060,-1,0,-1
0,1551,2050,-1,0,-1
0,1552,2380,-1,0,-1
0,1553,3840,1,0,-1
0,1554,4700,-1,0,-1
0,1555,1610,1,0,-1
0,1556,980,1,0,-1
0,1557,1020,-1,0,-1
0,1558,8930,-1,0,-1
0,1559,8010,-1,0,-1
0,1560,2700,1,0,-1
0,1561,680,1,0,-1
0,1562,8500,-1,0,-1
0,1563,2000,-1,0,-1
0,1564,3110,-1,0,-1
0,1565,4000,-1,0,-1
0,1566,5280,-1,0,-1
0,1567,1660,1,0,-1
0,1568,10670,1,0,-1
0,1569,2530,1,0,-1
0,1570,4510,-1,0,-1
0,1571,3000,1,0,-1
0,1572,8070,1,0,-1
0,1573,790,1,0,-1
0,1574,8730,-1,0,-1
0,1575,5140,-1,0,-1
0,1576,3200,-1,0,-1
0,1577,5850,1,0,-1
0,1578,3360,1,0,-1
0,1579,5650,-1,0,-1
0,1580,2670,1,0,-1
0,1581,3220,1,0,-1
0,1582,1320,1,0,-1
0,1583,12470,-1,0,-1
0,1584,1760,1,0,-1
0,1585,3110,-1,0,-1
0,1586,7870,-1,0,-1
0,1587,6350,-1,0,-1
0,1588,8950,1,0,-1
0,1589,1810,-1,0,-1
0,1590,3490,1,0,-1
0,1591,3170,-1,0,-1
0,1592,1080,-1,0,-1
0,1593,1340,1,0,-1
0,1594,20770,-1,0,-1
0,1595,2440,1,0,-1
0,1596,4290,-1,0,-1
0,1597,1240,1,0,-1
0,1598,5570,1,0,-1
0,1599,3910,-1,0,-1
0,1600,2440,1,-1,-1
0,1601,1410,-1,-1,-1
0,1602,900,1,-1,-1
0,1603,3240,1,-1,-1
0,1604,1150,1,-1,-1
0,1605,820,1,-1,-1
0,1606,4190,1,-1,-1
0,1607,5430,1,-1,-1
0,1608,3220,-1,-1,-1
0,1609,5400,-1,-1,-1
0,1610,12230,1,-1,-1
0,1611,1000,1,-1,-1
0,1612,3050,1,-1,-1
0,1613,730,1,-1,-1
0,1614,4780,-1,-1,-1
0,1615,1700,-1,-1,-1
0,1616,2960,1,-1,-1
0,1617,7500,1,-1,-1
0,1618,3230,1,-1,-1
0,1619,3750,1,-1,-1
0,1620,5350,1,-1,-1
0,1621,1280,1,-1,-1
0,1622,650,1,-1,-1
0,1623,6340,1,-1,-1
0,1624,2440,1,-1,-1
0,1625,2010,-1,-1,-1
0,1626,2260,-1,-1,-1
0,1627,1030,1,-1,-1
0,1628,18500,1,-1,-1
0,1629,3480,-1,-1,-1
0,1630,4940,-1,-1,-1
0,1631,4290,1,-1,-1
0,1632,690,1,-1,-1
0,1633,4270,1,-1,-1
0,1634,1440,1,-1,-1
0,1635,3770,-1,-1,-1
0,1636,2720,1,-1,-1
0,1637,1980,1,-1,-1
0,1638,330,1,-1,-1
0,1639,1520,1,-1,-1
0,1640,510,-1,-1,-1
0,1641,3490,1,-1,-1
0,1642,7850,-1,-1,-1
0,1643,2400,1,-1,-1
0,1644,5680,1,-1,-1
0,1645,1330,1,-1,-1
0,1646,2110,1,-1,-1
0,1647,970,1,-1,-1
0,1648,10680,1,-1,-1
0,1649,9400,-1,-1,-1
0,1650,1340,1,-1,-1
0,1651,1510,1,-1,-1
0,1652,3540,1,-1,-1
0,1653,6730,1,-1,-1
0,1654,1550,1,-1,-1
0,1655,720,1,-1,-1
0,1656,1240,-1,-1,-1
0,1657,3720,1,-1,-1
0,1658,6010,-1,-1,-1
0,1659,11820,-1,-1,-1
0,1660,4200,-1,-1,-1
0,1661,8690,1,-1,-1
0,1662,1850,-1,-1,-1
0,1663,1200,1,-1,-1
0,1664,5300,-1,-1,-1
0,1665,5190,-1,-1,-1
0,1666,2180,1,-1,-1
0,1667,3160,1,-1,-1
0,1668,3480,1,-1,-1
0,1669,2000,1,-1,-1
0,1670,5570,1,-1,-1
0,1671,500,-1,-1,-1
0,1672,3320,1,-1,-1
0,1673,770,1,-1,-1
0,1674,1840,-1,-1,-1
0,1675,8210,1,-1,-1
0,1676,3050,1,-1,-1
0,1677,1870,-1,-1,-1
0,1678,2790,1,-1,-1
0,1679,5830,1,-1,-1
0,1680,3180,-1,-1,-1
0,1681,780,1,-1,-1
0,1682,4410,-1,-1,-1
0,1683,950,-1,-1,-1
0,1684,1090,1,-1,-1
0,1685,2210,-1,-1,-1
0,1686,3280,-1,-1,-1
0,1687,1740,-1,-1,-1
0,1688,1070,1,-1,-1
0,1689,6170,1,-1,-1
0,1690,570,1,-1,-1
0,1691,1990,1,-1,-1
0,1692,1530,1,-1,-1
0,1693,2380,1,-1,-1
0,1694,2080,-1,-1,-1
0,1695,7680,1,-1,-1
0,1696,1480,1,-1,-1
0,1697,6020,-1,-1,-1
0,1698,570,-1,-1,-1
0,1699,5430,1,-1,-1
0,1700,3840,1,-1,-1
0,1701,5700,1,-1,-1
0,1702,11660,1,-1,-1
0,1703,3390,1,-1,-1
0,1704,1050,1,-1,-1
0,1705,1300,1,-1,-1
0,1706,4230,1,-1,-1
0,1707,5060,1,-1,-1
0,1708,10530,1,-1,-1
0,1709,1050,-1,-1,-1
0,1710,1630,1,-1,-1
0,1711,7980,1,-1,-1
0,1712,610,1,-1,-1
0,1713,1100,1,-1,-1
0,1714,10570,-1,-1,-1
0,1715,1950,1,-1,-1
0,1716,990,1,-1,-1
0,1717,3040,1,-1,-1
0,1718,1150,-1,-1,-1
0,1719,2490,-1,-1,-1
0,1720,1640,-1,-1,-1
0,1721,1560,-1,-1,-1
0,1722,1900,-1,-1,-1
0,1723,1470,1,-1,-1
0,1724,3020,-1,-1,-1
0,1725,4690,1,-1,-1
0,1726,1530,-1,-1,-1
0,1727,1620,-1,-1,-1
0,1728,6050,1,-1,-1
0,1729,2530,-1,-1,-1
0,1730,1210,1,-1,-1
0,1731,9570,-1,-1,-1
0,1732,3240,1,-1,-1
0,1733,4490,1,-1,-1
0,1734,1190,1,-1,-1
0,1735,2540,-1,-1,-1
0,1736,4720,1,-1,-1
0,1737,5300,1,-1,-1
0,1738,2490,-1,-1,-1
0,1739,4880,1,-1,-1
0,1740,7610,1,-1,-1
0,1741,6000,1,-1,-1
0,1742,1190,-1,-1,-1
0,1743,980,1,-1,-1
0,1744,3500,-1,-1,-1
0,1745,1120,-1,-1,-1
0,1746,2260,1,-1,-1
0,1747,1040,1,-1,-1
0,1748,980,1,-1,-1
0,1749,4350,1,-1,-1
0,1750,5310,1,-1,-1
0,1751,3740,1,-1,-1
0,1752,1750,-1,-1,-1
0,1753,13380,1,-1,-1
0,1754,1760,1,-1,-1
0,1755,4670,-1,-1,-1
0,1756,7170,-1,-1,-1
0,1757,750,1,-1,-1
0,1758,2800,1,-1,-1
0,1759,2170,-1,-1,-1
0,1760,1160,1,-1,-1
0,1761,3660,-1,-1,-1
0,1762,1920,-1,-1,-1
0,1763,14100,1,-1,-1
0,1764,4810,-1,-1,-1
0,1765,3710,1,-1,-1
0,1766,3980,-1,-1,-1
0,1767,4850,1,-1,-1
0,1768,9930,1,-1,-1
0,1769,1190,1,-1,-1
0,1770,2930,-1,-1,-1
0,1771,8910,1,-1,-1
0,1772,4070,1,-1,-1
0,1773,3280,1,-1,-1
0,1774,850,1,-1,-1
0,1775,4690,1,-1,-1
0,1776,5830,1,-1,-1
0,1777,1000,1,-1,-1
0,1778,1120,1,-1,-1
0,1779,4410,1,-1,-1
0,1780,5010,1,-1,-1
0,1781,3110,1,-1,-1
0,1782,4750,1,-1,-1
0,1783,2380,1,-1,-1
0,1784,4050,1,-1,-1
0,1785,4140,1,-1,-1
0,1786,540,1,-1,-1
0,1787,2240,1,-1,-1
0,1788,3360,1,-1,-1
0,1789,3500,1,-1,-1
0,1790,1910,1,-1,-1
0,1791,5950,1,-1,-1
0,1792,1340,1,-1,-1
0,1793,1610,1,-1,-1
0,1794,4010,-1,-1,-1
0,1795,6120,1,-1,-1
0,1796,12670,1,-1,-1
0,1797,2810,1,-1,-1
0,1798,5660,1,-1,-1
0,1799,670,1,-1,-1
0,1800,5240,1,-1,-1
0,1801,1410,1,-1,-1
0,1802,3070,1,-1,-1
0,1803,5100,-1,-1,-1
0,1804,5070,1,-1,-1
0,1805,3730,1,-1,-1
0,1806,4990,-1,-1,-1
0,1807,2410,-1,-1,-1
0,1808,4340,1,-1,-1
0,1809,8910,-1,-1,-1
0,1810,1110,1,-1,-1
0,1811,3400,1,-1,-1
0,1812,1020,-1,-1,-1
0,1813,8260,-1,-1,-1
0,1814,4740,-1,-1,-1
0,1815,2520,1,-1,-1
0,1816,5630,1,-1,-1
0,1817,3170,-1,-1,-1
0,1818,790,1,-1,-1
0,1819,19640,1,-1,-1
0,1820,5660,-1,-1,-1
0,1821,1180,1,-1,-1
0,1822,650,1,-1,-1
0,1823,5550,1,-1,-1
0,1824,5110,1,-1,-1
0,1825,5300,1,-1,-1
0,1826,8270,-1,-1,-1
0,1827,10980,1,-1,-1
0,1828,3820,1,-1,-1
0,1829,1000,-1,-1,-1
0,1830,4090,-1,-1,-1
0,1831,970,1,-1,-1
0,1832,1570,-1,-1,-1
0,1833,21500,1,-1,-1
0,1834,3940,1,-1,-1
0,1835,2290,1,-1,-1
0,1836,6480,1,-1,-1
0,1837,5440,1,-1,-1
0,1838,1470,1,-1,-1
0,1839,1000,1,-1,-1
0,1840,1860,1,-1,-1
0,1841,1960,-1,-1,-1
0,1842,1440,1,-1,-1
0,1843,1080,1,-1,-1
0,1844,4500,-1,-1,-1
0,1845,5780,1,-1,-1
0,1846,550,1,-1,-1
0,1847,6460,-1,-1,-1
0,1848,4960,-1,-1,-1
0,1849,740,1,-1,-1
0,1850,2490,1,-1,-1
0,1851,2110,-1,-1,-1
0,1852,2750,1,-1,-1
0,1853,1480,1,-1,-1
0,1854,1160,1,-1,-1
0,1855,1020,1,-1,-1
0,1856,5770,1,-1,-1
0,1857,6620,1,-1,-1
0,1858,9630,1,-1,-1
0,1859,3300,1,-1,-1
0,1860,380,-1,-1,-1
0,1861,860,1,-1,-1
0,1862,5200,1,-1,-1
0,1863,4730,1,-1,-1
0,1864,2690,1,-1,-1
0,1865,910,1,-1,-1
0,1866,7570,1,-1,-1
0,1867,2240,-1,-1,-1
0,1868,6020,-1,-1,-1
0,1869,7910,-1,-1,-1
0,1870,3480,-1,-1,-1
0,1871,4940,1,-1,-1
0,1872,670,1,-1,-1
0,1873,2300,1,-1,-1
0,1874,1070,1,-1,-1
0,1875,980,1,-1,-1
0,1876,930,1,-1,-1
0,1877,2230,-1,-1,-1
0,1878,5460,1,-1,-1
0,1879,6800,-1,-1,-1
0,1880,1160,1,-1,-1
0,1881,8660,1,-1,-1
0,1882,3850,-1,-1,-1
0,1883,3990,-1,-1,-1
0,1884,3420,1,-1,-1
0,1885,1050,1,-1,-1
0,1886,8550,-1,-1,-1
0,1887,1260,1,-1,-1
0,1888,3890,1,-1,-1
0,1889,1090,1,-1,-1
0,1890,2980,-1,-1,-1
0,1891,1950,1,-1,-1
0,1892,1150,1,-1,-1
0,1893,8670,1,-1,-1
0,1894,3380,-1,-1,-1
0,1895,5150,1,-1,-1
0,1896,860,1,-1,-1
0,1897,5240,1,-1,-1
0,1898,2470,1,-1,-1
0,1899,6380,-1,-1,-1
0,1900,9630,1,-1,-1
0,1901,8930,-1,-1,-1
0,1902,6260,-1,-1,-1
0,1903,1870,-1,-1,-1
0,1904,8550,-1,-1,-1
0,1905,1980,-1,-1,-1
0,1906,1270,-1,-1,-1
0,1907,1270,1,-1,-1
0,1908,1750,1,-1,-1
0,1909,4540,1,-1,-1
0,1910,4310,-1,-1,-1
0,1911,2920,1,-1,-1
0,1912,6110,1,-1,-1
0,1913,1960,-1,-1,-1
0,1914,8300,1,-1,-1
0,1915,1730,-1,-1,-1
0,1916,3320,1,-1,-1
0,1917,1200,1,-1,-1
0,1918,2700,1,-1,-1
0,1919,3500,1,-1,-1
0,1920,6400,1,-1,-1
0,1921,17720,1,-1,-1
0,1922,8060,1,-1,-1
0,1923,770,1,-1,-1
0,1924,4010,1,-1,-1
0,1925,3270,-1,-1,-1
0,1926,6070,1,-1,-1
0,1927,4560,1,-1,-1
0,1928,5250,-1,-1,-1
0,1929,3700,1,-1,-1
0,1930,2470,-1,-1,-1
0,1931,3670,1,-1,-1
0,1932,1770,-1,-1,-1
0,1933,3360,1,-1,-1
0,1934,7690,-1,-1,-1
0,1935,1890,-1,-1,-1
0,1936,3690,1,-1,-1
0,1937,1650,-1,-1,-1
0,1938,2320,-1,-1,-1
0,1939,5250,1,-1,-1
0,1940,1250,-1,-1,-1
0,1941,3290,1,-1,-1
0,1942,3470,1,-1,-1
0,1943,3720,1,-1,-1
0,1944,1060,1,-1,-1
0,1945,1760,1,-1,-1
0,1946,4020,-1,-1,-1
0,1947,5950,-1,-1,-1
0,1948,1710,1,-1,-1
0,1949,6820,-1,-1,-1
0,1950,3710,1,-1,-1
0,1951,2570,1,-1,-1
0,1952,4460,1,-1,-1
0,1953,2220,1,-1,-1
0,1954,2260,-1,-1,-1
0,1955,2970,-1,-1,-1
0,1956,9950,1,-1,-1
0,1957,3000,1,-1,-1
0,1958,2280,-1,-1,-1
0,1959,2090,-1,-1,-1
0,1960,6520,1,-1,-1
0,1961,10660,1,-1,-1
0,1962,1460,-1,-1,-1
0,1963,1540,1,-1,-1
0,1964,940,1,-1,-1
0,1965,5020,1,-1,-1
0,1966,5340,1,-1,-1
0,1967,1680,1,-1,-1
0,1968,2130,1,-1,-1
0,1969,6020,-1,-1,-1
0,1970,1150,-1,-1,-1
0,1971,2080,-1,-1,-1
0,1972,480,1,-1,-1
0,1973,1270,1,-1,-1
0,1974,9460,1,-1,-1
0,1975,3140,1,-1,-1
0,1976,740,1,-1,-1
0,1977,2530,1,-1,-1
0,1978,6710,-1,-1,-1
0,1979,990,1,-1,-1
0,1980,870,1,-1,-1
0,1981,2730,1,-1,-1
0,1982,4750,-1,-1,-1
0,1983,3230,1,-1,-1
0,1984,2460,-1,-1,-1
0,1985,3050,1,-1,-1
0,1986,3610,-1,-1,-1
0,1987,2880,1,-1,-1
0,1988,3740,-1,-1,-1
0,1989,3380,1,-1,-1
0,1990,3030,1,-1,-1
0,1991,1350,1,-1,-1
0,1992,2460,-1,-1,-1
0,1993,5720,-1,-1,-1
0,1994,1630,-1,-1,-1
0,1995,1370,1,-1,-1
0,1996,1860,1,-1,-1
0,1997,1550,1,-1,-1
0,1998,4990,-1,-1,-1
0,1999,7350,-1,-1,-1
0,2000,670,-1,1,1
0,2001,1220,-1,1,1
0,2002,9120,-1,1,1
0,2003,1790,1,1,1
0,2004,1650,1,1,1
0,2005,840,1,1,1
0,2006,6190,-1,1,1
0,2007,4100,-1,1,1
0,2008,1030,1,1,1
0,2009,1100,-1,1,1
0,2010,13150,1,1,1
0,2011,1390,-1,1,1
0,2012,5270,-1,1,1
0,2013,6970,-1,1,1
0,2014,8300,1,1,1
0,2015,4420,-1,1,1
0,2016,10250,-1,1,1
0,2017,6390,1,1,1
0,2018,5890,-1,1,1
0,2019,840,-1,1,1
0,2020,3750,1,1,1
0,2021,670,1,1,1
0,2022,3990,1,1,1
0,2023,1770,1,1,1
0,2024,2680,-1,1,1
0,2025,2220,1,1,1
0,2026,1720,-1,1,1
0,2027,2130,-1,1,1
0,2028,10210,-1,1,1
0,2029,4740,-1,1,1
0,2030,4440,-1,1,1
0,2031,2650,-1,1,1
0,2032,21770,1,1,1
0,2033,12040,-1,1,1
0,2034,4150,-1,1,1
0,2035,17330,1,1,1
0,2036,9930,-1,1,1
0,2037,1290,-1,1,1
0,2038,9020,-1,1,1
0,2039,600,-1,1,1
0,2040,1130,-1,1,1
0,2041,750,-1,1,1
0,2042,1600,-1,1,1
0,2043,3520,-1,1,1
0,2044,10750,1,1,1
0,2045,4670,1,1,1
0,2046,4170,1,1,1
0,2047,4560,-1,1,1
0,2048,3650,1,1,1
0,2049,4420,-1,1,1
0,2050,6850,1,1,1
0,2051,4870,1,1,1
0,2052,5710,-1,1,1
0,2053,3460,-1,1,1
0,2054,3100,-1,1,1
0,2055,2410,1,1,1
0,2056,4210,1,1,1
0,2057,10500,-1,1,1
0,2058,1330,-1,1,1
0,2059,4600,-1,1,1
0,2060,7040,1,1,1
0,2061,4610,-1,1,1
0,2062,1400,-1,1,1
0,2063,8270,1,1,1
0,2064,5300,-1,1,1
0,2065,3640,1,1,1
0,2066,3910,-1,1,1
0,2067,6080,1,1,1
0,2068,6620,1,1,1
0,2069,1980,-1,1,1
0,2070,8990,1,1,1
0,2071,7250,-1,1,1
0,2072,2860,-1,1,1
0,2073,1740,1,1,1
0,2074,9920,-1,1,1
0,2075,7680,1,1,1
0,2076,5220,-1,1,1
0,2077,1920,-1,1,1
0,2078,5270,1,1,1
0,2079,750,-1,1,1
0,2080,6280,-1,1,1
0,2081,2890,-1,1,1
0,2082,5490,1,1,1
0,2083,2740,-1,1,1
0,2084,9810,-1,1,1
0,2085,2480,1,1,1
0,2086,11500,-1,1,1
0,2087,3320,1,1,1
0,2088,14190,-1,1,1
0,2089,2250,1,1,1
0,2090,1100,1,1,1
0,2091,610,-1,1,1
0,2092,2960,1,1,1
0,2093,3510,-1,1,1
0,2094,510,1,1,1
0,2095,2180,1,1,1
0,2096,1710,-1,1,1
0,2097,6860,1,1,1
0,2098,1750,1,1,1
0,2099,1190,-1,1,1
0,2100,2920,1,1,1
0,2101,2210,-1,1,1
0,2102,860,-1,1,1
0,2103,1790,1,1,1
0,2104,4450,1,1,1
0,2105,1990,1,1,1
0,2106,3720,-1,1,1
0,2107,2240,1,1,1
0,2108,2580,1,1,1
0,2109,18730,1,1,1
0,2110,2250,1,1,1
0,2111,1330,-1,1,1
0,2112,630,-1,1,1
0,2113,1170,-1,1,1
0,2114,2960,-1,1,1
0,2115,1620,-1,1,1
0,2116,6790,1,1,1
0,2117,3310,-1,1,1
0,2118,18390,1,1,1
0,2119,840,-1,1,1
0,2120,2680,1,1,1
0,2121,12390,1,1,1
0,2122,1530,1,1,1
0,2123,10420,1,1,1
0,2124,3880,1,1,1
0,2125,4810,-1,1,1
0,2126,2330,-1,1,1
0,2127,610,-1,1,1
0,2128,4250,1,1,1
0,2129,3650,1,1,1
0,2130,4030,1,1,1
0,2131,1880,-1,1,1
0,2132,9620,-1,1,1
0,2133,1870,1,1,1
0,2134,3400,1,1,1
0,2135,4120,-1,1,1
0,2136,2970,-1,1,1
0,2137,2500,-1,1,1
0,2138,1730,-1,1,1
0,2139,1810,1,1,1
0,2140,4440,1,1,1
0,2141,5750,-1,1,1
0,2142,880,-1,1,1
0,2143,1340,1,1,1
0,2144,730,-1,1,1
0,2145,10180,1,1,1
0,2146,2440,1,1,1
0,2147,820,-1,1,1
0,2148,4740,1,1,1
0,2149,3010,-1,1,1
0,2150,5140,1,1,1
0,2151,920,1,1,1
0,2152,1650,-1,1,1
0,2153,1780,1,1,1
0,2154,1140,-1,1,1
0,2155,4090,-1,1,1
0,2156,710,-1,1,1
0,2157,2210,-1,1,1
0,2158,6460,-1,1,1
0,2159,3400,1,1,1
0,2160,4920,1,1,1
0,2161,6640,-1,1,1
0,2162,3870,-1,1,1
0,2163,3130,-1,1,1
0,2164,3340,1,1,1
0,2165,11300,1,1,1
0,2166,1200,-1,1,1
0,2167,970,-1,1,1
0,2168,960,1,1,1
0,2169,1090,-1,1,1
0,2170,11250,1,1,1
0,2171,19300,1,1,1
0,2172,5890,1,1,1
0,2173,3120,1,1,1
0,2174,970,1,1,1
0,2175,8670,-1,1,1
0,2176,1710,-1,1,1
0,2177,7370,1,1,1
0,2178,8120,1,1,1
0,2179,2790,-1,1,1
0,2180,5180,1,1,1
0,2181,2240,-1,1,1
0,2182,2450,-1,1,1
0,2183,3450,1,1,1
0,2184,6030,1,1,1
0,2185,7140,-1,1,1
0,2186,1340,-1,1,1
0,2187,3930,1,1,1
0,2188,6740,-1,1,1
0,2189,890,1,1,1
0,2190,4740,-1,1,1
0,2191,1140,1,1,1
0,2192,4040,1,1,1
0,2193,750,-1,1,1
0,2194,1120,-1,1,1
0,2195,8080,1,1,1
0,2196,3510,-1,1,1
0,2197,1940,1,1,1
0,2198,1330,-1,1,1
0,2199,590,-1,1,1
0,2200,2010,1,1,1
0,2201,3040,-1,1,1
0,2202,1350,1,1,1
0,2203,4630,-1,1,1
0,2204,750,-1,1,1
0,2205,2000,-1,1,1
0,2206,3700,-1,1,1
0,2207,1700,1,1,1
0,2208,6350,-1,1,1
0,2209,4720,1,1,1
0,2210,5600,-1,1,1
0,2211,4070,-1,1,1
0,2212,2470,-1,1,1
0,2213,5820,-1,1,1
0,2214,2370,-1,1,1
0,2215,3950,1,1,1
0,2216,7580,1,1,1
0,2217,1280,1,1,1
0,2218,1150,1,1,1
0,2219,4770,-1,1,1
0,2220,8060,1,1,1
0,2221,1670,1,1,1
0,2222,3210,-1,1,1
0,2223,3640,1,1,1
0,2224,7460,1,1,1
0,2225,2790,-1,1,1
0,2226,1020,-1,1,1
0,2227,3870,1,1,1
0,2228,1490,1,1,1
0,2229,700,-1,1,1
0,2230,2830,-1,1,1
0,2231,3800,-1,1,1
0,2232,600,-1,1,1
0,2233,6150,-1,1,1
0,2234,650,-1,1,1
0,2235,2950,-1,1,1
0,2236,7590,-1,1,1
0,2237,3140,1,1,1
0,2238,2190,1,1,1
0,2239,820,-1,1,1
0,2240,4790,1,1,1
0,2241,1590,1,1,1
0,2242,9260,1,1,1
0,2243,6260,1,1,1
0,2244,780,-1,1,1
0,2245,4890,-1,1,1
0,2246,1030,-1,1,1
0,2247,1720,-1,1,1
0,2248,5840,1,1,1
0,2249,4360,-1,1,1
0,2250,1520,1,1,1
0,2251,11940,-1,1,1
0,2252,1920,1,1,1
0,2253,1090,1,1,1
0,2254,7360,1,1,1
0,2255,2780,1,1,1
0,2256,1810,1,1,1
0,2257,4760,-1,1,1
0,2258,4300,1,1,1
0,2259,7670,-1,1,1
0,2260,2050,1,1,1
0,2261,1340,1,1,1
0,2262,5730,1,1,1
0,2263,1680,1,1,1
0,2264,7340,1,1,1
0,2265,5650,1,1,1
0,2266,4190,1,1,1
0,2267,1400,1,1,1
0,2268,3190,-1,1,1
0,2269,3860,1,1,1
0,2270,1290,-1,1,1
0,2271,7370,-1,1,1
0,2272,6160,-1,1,1
0,2273,830,-1,1,1
0,2274,420,-1,1,1
0,2275,5530,1,1,1
0,2276,1720,-1,1,1
0,2277,2840,-1,1,1
0,2278,1670,-1,1,1
0,2279,3210,-1,1,1
0,2280,2240,-1,1,1
0,2281,3770,1,1,1
0,2282,540,-1,1,1
0,2283,2430,1,1,1
0,2284,3060,-1,1,1
0,2285,2200,-1,1,1
0,2286,1600,1,1,1
0,2287,4060,1,1,1
0,2288,2120,1,1,1
0,2289,6370,1,1,1
0,2290,1310,1,1,1
0,2291,4640,-1,1,1
0,2292,5690,1,1,1
0,2293,7890,-1,1,1
0,2294,5090,1,1,1
0,2295,2690,-1,1,1
0,2296,1560,1,1,1
0,2297,4320,-1,1,1
0,2298,1200,1,1,1
0,2299,2840,1,1,1
0,2300,1620,1,1,1
0,2301,6020,1,1,1
0,2302,1740,-1,1,1
0,2303,3090,-1,1,1
0,2304,16760,1,1,1
0,2305,540,-1,1,1
0,2306,1460,-1,1,1
0,2307,2590,1,1,1
0,2308,9880,1,1,1
0,2309,2510,1,1,1
0,2310,1740,1,1,1
0,2311,560,-1,1,1
0,2312,4540,1,1,1
0,2313,3110,-1,1,1
0,2314,6340,1,1,1
0,2315,1070,-1,1,1
0,2316,6730,1,1,1
0,2317,1290,-1,1,1
0,2318,1980,-1,1,1
0,2319,8210,-1,1,1
0,2320,5840,-1,1,1
0,2321,4910,-1,1,1
0,2322,840,-1,1,1
0,2323,7010,-1,1,1
0,2324,7970,1,1,1
0,2325,1000,1,1,1
0,2326,9040,-1,1,1
0,2327,4110,1,1,1
0,2328,8410,1,1,1
0,2329,2750,1,1,1
0,2330,3800,-1,1,1
0,2331,3930,1,1,1
0,2332,820,-1,1,1
0,2333,2100,-1,1,1
0,2334,5250,1,1,1
0,2335,9660,1,1,1
0,2336,4890,1,1,1
0,2337,6210,1,1,1
0,2338,3350,-1,1,1
0,2339,1100,-1,1,1
0,2340,1310,1,1,1
0,2341,5160,-1,1,1
0,2342,7380,1,1,1
0,2343,2380,1,1,1
0,2344,4470,1,1,1
0,2345,10300,1,1,1
0,2346,8600,1,1,1
0,2347,3050,-1,1,1
0,2348,1220,-1,1,1
0,2349,1470,-1,1,1
0,2350,2470,-1,1,1
0,2351,3340,1,1,1
0,2352,1580,1,1,1
0,2353,6200,-1,1,1
0,2354,4540,-1,1,1
0,2355,1980,1,1,1
0,2356,8610,1,1,1
0,2357,1630,1,1,1
0,2358,1640,-1,1,1
0,2359,1020,-1,1,1
0,2360,5640,-1,1,1
0,2361,800,-1,1,1
0,2362,2380,-1,1,1
0,2363,4170,-1,1,1
0,2364,3400,1,1,1
0,2365,7300,1,1,1
0,2366,1800,-1,1,1
0,2367,1920,-1,1,1
0,2368,4960,-1,1,1
0,2369,3410,1,1,1
0,2370,3030,1,1,1
0,2371,2820,-1,1,1
0,2372,3080,-1,1,1
0,2373,480,-1,1,1
0,2374,6260,1,1,1
0,2375,770,-1,1,1
0,2376,9050,-1,1,1
0,2377,1180,1,1,1
0,2378,7410,-1,1,1
0,2379,3640,1,1,1
0,2380,990,-1,1,1
0,2381,5700,1,1,1
0,2382,650,-1,1,1
0,2383,11760,-1,1,1
0,2384,5760,1,1,1
0,2385,3170,-1,1,1
0,2386,5370,1,1,1
0,2387,2860,1,1,1
0,2388,690,-1,1,1
0,2389,4850,1,1,1
0,2390,1330,-1,1,1
0,2391,1030,1,1,1
0,2392,3170,-1,1,1
0,2393,2680,1,1,1
0,2394,2240,-1,1,1
0,2395,1990,-1,1,1
0,2396,2030,1,1,1
0,2397,1550,1,1,1
0,2398,1930,-1,1,1
0,2399,3760,1,1,1
0,2400,1870,1,0,0
0,2401,6560,1,0,0
0,2402,3580,-1,0,0
0,2403,6130,-1,0,0
0,2404,5000,1,0,0
0,2405,4520,-1,0,0
0,2406,1000,1,0,0
0,2407,1620,-1,0,0
0,2408,5980,1,0,0
0,2409,3800,1,0,0
0,2410,3540,1,0,0
0,2411,3220,-1,0,0
0,2412,6040,1,0,0
0,2413,9360,1,0,0
0,2414,7370,1,0,0
0,2415,3130,1,0,0
0,2416,360,1,0,0
0,2417,4020,-1,0,0
0,2418,930,1,0,0
0,2419,7270,1,0,0
0,2420,1000,1,0,0
0,2421,940,-1,0,0
0,2422,7370,-1,0,0
0,2423,670,-1,0,0
0,2424,1690,1,0,0
0,2425,4370,1,0,0
0,2426,2000,1,0,0
0,2427,970,1,0,0
0,2428,4890,1,0,0
0,2429,4360,1,0,0
0,2430,4340,-1,0,0
0,2431,1820,1,0,0
0,2432,3440,1,0,0
0,2433,4830,-1,0,0
0,2434,17740,1,0,0
0,2435,2960,1,0,0
0,2436,1020,1,0,0
0,2437,1840,1,0,0
0,2438,1740,1,0,0
0,2439,2640,1,0,0
0,2440,5910,1,0,0
0,2441,2540,1,0,0
0,2442,7770,-1,0,0
0,2443,3430,1,0,0
0,2444,2340,-1,0,0
0,2445,1390,-1,0,0
0,2446,7800,1,0,0
0,2447,6130,-1,0,0
0,2448,11050,1,0,0
0,2449,1040,1,0,0
0,2450,3650,1,0,0
0,2451,3300,-1,0,0
0,2452,2100,-1,0,0
0,2453,1720,-1,0,0
0,2454,4470,1,0,0
0,2455,1500,-1,0,0
0,2456,1550,1,0,0
0,2457,9510,-1,0,0
0,2458,4530,1,0,0
0,2459,5870,1,0,0
0,2460,1600,1,0,0
0,2461,14870,1,0,0
0,2462,4540,-1,0,0
0,2463,2090,1,0,0
0,2464,4770,-1,0,0
0,2465,8400,-1,0,0
0,2466,3450,-1,0,0
0,2467,4280,1,0,0
0,2468,2930,1,0,0
0,2469,3690,-1,0,0
0,2470,4810,1,0,0
0,2471,1340,-1,0,0
0,2472,1270,1,0,0
0,2473,9550,1,0,0
0,2474,790,-1,0,0
0,2475,2540,1,0,0
0,2476,2070,1,0,0
0,2477,2950,1,0,0
0,2478,770,-1,0,0
0,2479,4200,1,0,0
0,2480,880,-1,0,0
0,2481,6170,-1,0,0
0,2482,3070,-1,0,0
0,2483,1710,-1,0,0
0,2484,850,1,0,0
0,2485,820,-1,0,0
0,2486,3230,-1,0,0
0,2487,6090,1,0,0
0,2488,4320,-1,0,0
0,2489,11050,1,0,0
0,2490,490,1,0,0
0,2491,10220,1,0,0
0,2492,5660,1,0,0
0,2493,7630,-1,0,0
0,2494,7420,-1,0,0
0,2495,1710,1,0,0
0,2496,3100,1,0,0
0,2497,12930,1,0,0
0,2498,910,1,0,0
0,2499,1130,-1,0,0
0,2500,2420,-1,0,0
0,2501,4530,1,0,0
0,2502,910,-1,0,0
0,2503,2190,1,0,0
0,2504,820,-1,0,0
0,2505,7460,1,0,0
0,2506,2290,-1,0,0
0,2507,2360,1,0,0
0,2508,4120,1,0,0
0,2509,900,1,0,0
0,2510,11770,-1,0,0
0,2511,2110,1,0,0
0,2512,2900,-1,0,0
0,2513,1500,1,0,0
0,2514,12570,-1,0,0
0,2515,10110,1,0,0
0,2516,3710,-1,0,0
0,2517,1090,-1,0,0
0,2518,5090,1,0,0
0,2519,1990,1,0,0
0,2520,1160,-1,0,0
0,2521,1580,1,0,0
0,2522,3150,1,0,0
0,2523,2460,-1,0,0
0,2524,1500,-1,0,0
0,2525,3410,-1,0,0
0,2526,2430,1,0,0
0,2527,3640,-1,0,0
0,2528,3920,1,0,0
0,2529,1340,-1,0,0
0,2530,1680,1,0,0
0,2531,8040,1,0,0
0,2532,3880,1,0,0
0,2533,1640,-1,0,0
0,2534,6260,1,0,0
0,2535,2090,1,0,0
0,2536,1220,-1,0,0
0,2537,2100,1,0,0
0,2538,3800,-1,0,0
0,2539,3220,-1,0,0
0,2540,5290,-1,0,0
0,2541,6690,1,0,0
0,2542,1390,1,0,0
0,2543,3160,1,0,0
0,2544,2710,-1,0,0
0,2545,5610,-1,0,0
0,2546,9450,1,0,0
0,2547,4300,-1,0,0
0,2548,4780,-1,0,0
0,2549,930,1,0,0
0,2550,5630,-1,0,0
0,2551,1070,1,0,0
0,2552,2400,1,0,0
0,2553,2590,-1,0,0
0,2554,1670,-1,0,0
0,2555,2610,1,0,0
0,2556,2240,-1,0,0
0,2557,5430,-1,0,0
0,2558,7440,1,0,0
0,2559,3430,1,0,0
0,2560,8670,1,0,0
0,2561,8570,-1,0,0
0,2562,3700,-1,0,0
0,2563,3610,-1,0,0
0,2564,2670,1,0,0
0,2565,2950,1,0,0
0,2566,2880,1,0,0
0,2567,13150,1,0,0
0,2568,3160,1,0,0
0,2569,7160,1,0,0
0,2570,3560,1,0,0
0,2571,1700,-1,0,0
0,2572,6830,-1,0,0
0,2573,7000,1,0,0
0,2574,930,1,0,0
0,2575,3960,-1,0,0
0,2576,4400,1,0,0
0,2577,1940,-1,0,0
0,2578,720,-1,0,0
0,2579,9050,1,0,0
0,2580,6680,1,0,0
0,2581,13930,-1,0,0
0,2582,2110,-1,0,0
0,2583,2180,-1,0,0
0,2584,2670,1,0,0
0,2585,6560,-1,0,0
0,2586,7490,1,0,0
0,2587,3690,-1,0,0
0,2588,2210,-1,0,0
0,2589,1610,-1,0,0
0,2590,5590,1,0,0
0,2591,2100,1,0,0
0,2592,550,1,0,0
0,2593,8940,-1,0,0
0,2594,1350,1,0,0
0,2595,2800,1,0,0
0,2596,4680,-1,0,0
0,2597,1260,-1,0,0
0,2598,3990,-1,0,0
0,2599,1880,1,0,0
0,2600,7010,1,0,0
0,2601,1810,1,0,0
0,2602,2890,1,0,0
0,2603,10420,-1,0,0
0,2604,780,-1,0,0
0,2605,2390,-1,0,0
0,2606,1940,1,0,0
0,2607,260,1,0,0
0,2608,1380,1,0,0
0,2609,3510,-1,0,0
0,2610,3430,1,0,0
0,2611,3030,-1,0,0
0,2612,6130,1,0,0
0,2613,1920,1,0,0
0,2614,1580,1,0,0
0,2615,7880,-1,0,0
0,2616,3290,1,0,0
0,2617,4320,-1,0,0
0,2618,3290,1,0,0
0,2619,9210,-1,0,0
0,2620,5210,1,0,0
0,2621,2040,1,0,0
0,2622,1160,1,0,0
0,2623,650,1,0,0
0,2624,610,-1,0,0
0,2625,6400,-1,0,0
0,2626,3140,-1,0,0
0,2627,890,-1,0,0
0,2628,6420,-1,0,0
0,2629,2560,-1,0,0
0,2630,13900,-1,0,0
0,2631,2410,1,0,0
0,2632,3670,-1,0,0
0,2633,2630,-1,0,0
0,2634,1680,-1,0,0
0,2635,5560,1,0,0
0,2636,9180,-1,0,0
0,2637,5620,1,0,0
0,2638,4930,1,0,0
0,2639,1390,-1,0,0
0,2640,1830,-1,0,0
0,2641,4820,-1,0,0
0,2642,1670,1,0,0
0,2643,1570,1,0,0
0,2644,1790,1,0,0
0,2645,2560,-1,0,0
0,2646,4790,1,0,0
0,2647,5560,1,0,0
0,2648,4130,-1,0,0
0,2649,3460,-1,0,0
0,2650,18840,1,0,0
0,2651,6350,1,0,0
0,2652,4940,1,0,0
0,2653,6970,-1,0,0
0,2654,7130,1,0,0
0,2655,1670,-1,0,0
0,2656,1630,-1,0,0
0,2657,1300,-1,0,0
0,2658,4700,1,0,0
0,2659,1880,-1,0,0
0,2660,6660,1,0,0
0,2661,3750,-1,0,0
0,2662,4890,1,0,0
0,2663,2370,-1,0,0
0,2664,1190,-1,0,0
0,2665,3170,1,0,0
0,2666,7150,-1,0,0
0,2667,2700,1,0,0
0,2668,1020,-1,0,0
0,2669,4560,-1,0,0
0,2670,4500,-1,0,0
0,2671,5380,-1,0,0
0,2672,10720,1,0,0
0,2673,450,-1,0,0
0,2674,7630,-1,0,0
0,2675,1420,1,0,0
0,2676,2100,1,0,0
0,2677,3290,1,0,0
0,2678,2030,1,0,0
0,2679,6080,-1,0,0
0,2680,5280,-1,0,0
0,2681,790,-1,0,0
0,2682,5440,1,0,0
0,2683,950,-1,0,0
0,2684,1970,-1,0,0
0,2685,11670,1,0,0
0,2686,850,-1,0,0
0,2687,5320,-1,0,0
0,2688,11920,-1,0,0
0,2689,1450,-1,0,0
0,2690,7500,-1,0,0
0,2691,4680,1,0,0
0,2692,1820,-1,0,0
0,2693,3150,1,0,0
0,2694,2710,-1,0,0
0,2695,2550,1,0,0
0,2696,9040,-1,0,0
0,2697,1790,-1,0,0
0,2698,5230,-1,0,0
0,2699,1210,1,0,0
0,2700,1930,-1,0,0
0,2701,1490,-1,0,0
0,2702,1240,1,0,0
0,2703,4040,-1,0,0
0,2704,11500,1,0,0
0,2705,3980,-1,0,0
0,2706,2790,-1,0,0
0,2707,3170,1,0,0
0,2708,1530,1,0,0
0,2709,12380,1,0,0
0,2710,1170,1,0,0
0,2711,2910,1,0,0
0,2712,3060,1,0,0
0,2713,2580,1,0,0
0,2714,5690,1,0,0
0,2715,2250,1,0,0
0,2716,1970,-1,0,0
0,2717,2160,1,0,0
0,2718,2950,-1,0,0
0,2719,7320,1,0,0
0,2720,3130,1,0,0
0,2721,6150,-1,0,0
0,2722,3230,-1,0,0
0,2723,2480,-1,0,0
0,2724,2930,1,0,0
0,2725,2270,1,0,0
0,2726,600,-1,0,0
0,2727,4710,-1,0,0
0,2728,3390,-1,0,0
0,2729,2290,1,0,0
0,2730,2960,-1,0,0
0,2731,5690,1,0,0
0,2732,2720,1,0,0
0,2733,5760,1,0,0
0,2734,1320,1,0,0
0,2735,1290,1,0,0
0,2736,2570,1,0,0
0,2737,6860,1,0,0
0,2738,920,1,0,0
0,2739,1550,-1,0,0
0,2740,2930,1,0,0
0,2741,1880,1,0,0
0,2742,3780,1,0,0
0,2743,920,1,0,0
0,2744,1960,1,0,0
0,2745,2240,-1,0,0
0,2746,7960,-1,0,0
0,2747,2240,1,0,0
0,2748,11610,1,0,0
0,2749,2920,1,0,0
0,2750,2990,-1,0,0
0,2751,8940,-1,0,0
0,2752,940,1,0,0
0,2753,5740,1,0,0
0,2754,4050,-1,0,0
0,2755,530,-1,0,0
0,2756,1710,-1,0,0
0,2757,7300,1,0,0
0,2758,7470,-1,0,0
0,2759,2550,1,0,0
0,2760,3210,-1,0,0
0,2761,2160,1,0,0
0,2762,4470,1,0,0
0,2763,5520,1,0,0
0,2764,10650,1,0,0
0,2765,4350,1,0,0
0,2766,3320,1,0,0
0,2767,2740,-1,0,0
0,2768,1300,1,0,0
0,2769,7780,-1,0,0
0,2770,2090,-1,0,0
0,2771,1650,-1,0,0
0,2772,1670,-1,0,0
0,2773,5150,1,0,0
0,2774,1430,1,0,0
0,2775,2080,1,0,0
0,2776,3830,-1,0,0
0,2777,1410,-1,0,0
0,2778,4850,1,0,0
0,2779,5390,1,0,0
0,2780,1190,-1,0,0
0,2781,930,1,0,0
0,2782,4840,-1,0,0
0,2783,7760,1,0,0
0,2784,7810,1,0,0
0,2785,790,-1,0,0
0,2786,19020,1,0,0
0,2787,1900,1,0,0
0,2788,990,1,0,0
0,2789,11840,-1,0,0
0,2790,1410,-1,0,0
0,2791,1940,-1,0,0
0,2792,3660,1,0,0
0,2793,1090,-1,0,0
0,2794,1660,1,0,0
0,2795,2030,1,0,0
0,2796,3120,1,0,0
0,2797,1670,1,0,0
0,2798,1900,-1,0,0
0,2799,6010,-1,0,0
0,2800,5200,-1,1,0
0,2801,4430,-1,1,0
0,2802,5160,-1,1,0
0,2803,6010,-1,1,0
0,2804,7440,1,1,0
0,2805,3250,-1,1,0
0,2806,750,-1,1,0
0,2807,14010,-1,1,0
0,2808,1050,-1,1,0
0,2809,2450,-1,1,0
0,2810,930,-1,1,0
0,2811,3360,-1,1,0
0,2812,1820,1,1,0
0,2813,4520,-1,1,0
0,2814,4790,-1,1,0
0,2815,7020,-1,1,0
0,2816,2820,1,1,0
0,2817,1320,-1,1,0
0,2818,690,-1,1,0
0,2819,3450,-1,1,0
0,2820,3410,-1,1,0
0,2821,6380,-1,1,0
0,2822,3080,-1,1,0
0,2823,2530,-1,1,0
0,2824,4500,-1,1,0
0,2825,1790,-1,1,0
0,2826,2170,-1,1,0
0,2827,1270,-1,1,0
0,2828,2610,-1,1,0
0,2829,4910,1,1,0
0,2830,2350,-1,1,0
0,2831,5880,-1,1,0
0,2832,930,-1,1,0
0,2833,1090,-1,1,0
0,2834,2050,-1,1,0
0,2835,450,-1,1,0
0,2836,2290,-1,1,0
0,2837,10190,-1,1,0
0,2838,1990,-1,1,0
0,2839,1590,-1,1,0
0,2840,22940,-1,1,0
0,2841,670,-1,1,0
0,2842,4710,1,1,0
0,2843,4700,-1,1,0
0,2844,2910,-1,1,0
0,2845,1340,-1,1,0
0,2846,1270,-1,1,0
0,2847,780,-1,1,0
0,2848,630,-1,1,0
0,2849,960,-1,1,0
0,2850,5900,-1,1,0
0,2851,11210,-1,1,0
0,2852,7780,-1,1,0
0,2853,6130,-1,1,0
0,2854,4260,1,1,0
0,2855,5250,-1,1,0
0,2856,750,-1,1,0
0,2857,3920,-1,1,0
0,2858,8310,-1,1,0
0,2859,1370,-1,1,0
0,2860,810,-1,1,0
0,2861,2820,-1,1,0
0,2862,2750,1,1,0
0,2863,2780,-1,1,0
0,2864,2190,1,1,0
0,2865,5150,1,1,0
0,2866,1070,-1,1,0
0,2867,7180,-1,1,0
0,2868,9680,-1,1,0
0,2869,1950,-1,1,0
0,2870,13960,-1,1,0
0,2871,810,-1,1,0
0,2872,2460,-1,1,0
0,2873,7840,-1,1,0
0,2874,3280,-1,1,0
0,2875,9240,-1,1,0
0,2876,3860,-1,1,0
0,2877,3840,-1,1,0
0,2878,2860,-1,1,0
0,2879,2990,-1,1,0
0,2880,1350,-1,1,0
0,2881,2600,-1,1,0
0,2882,5030,1,1,0
0,2883,4060,-1,1,0
0,2884,1180,-1,1,0
0,2885,1890,-1,1,0
0,2886,13830,1,1,0
0,2887,750,-1,1,0
0,2888,1410,-1,1,0
0,2889,1200,-1,1,0
0,2890,3300,-1,1,0
0,2891,600,-1,1,0
0,2892,610,1,1,0
0,2893,1730,-1,1,0
0,2894,3420,-1,1,0
0,2895,10720,-1,1,0
0,2896,1960,-1,1,0
0,2897,5690,-1,1,0
0,2898,2380,-1,1,0
0,2899,4650,1,1,0
0,2900,1720,-1,1,0
0,2901,1330,-1,1,0
0,2902,2020,-1,1,0
0,2903,1590,-1,1,0
0,2904,5180,-1,1,0
0,2905,990,-1,1,0
0,2906,1590,-1,1,0
0,2907,2040,-1,1,0
0,2908,3960,1,1,0
0,2909,1040,-1,1,0
0,2910,2540,-1,1,0
0,2911,4120,-1,1,0
0,2912,1370,-1,1,0
0,2913,830,-1,1,0
0,2914,3540,-1,1,0
0,2915,2090,1,1,0
0,2916,6080,-1,1,0
0,2917,1480,-1,1,0
0,2918,1730,-1,1,0
0,2919,6220,-1,1,0
0,2920,970,1,1,0
0,2921,3050,-1,1,0
0,2922,3200,-1,1,0
0,2923,1590,-1,1,0
0,2924,6990,-1,1,0
0,2925,620,-1,1,0
0,2926,830,-1,1,0
0,2927,2540,-1,1,0
0,2928,790,-1,1,0
0,2929,3590,1,1,0
0,2930,2300,-1,1,0
0,2931,3230,-1,1,0
0,2932,12800,-1,1,0
0,2933,5020,-1,1,0
0,2934,790,1,1,0
0,2935,7280,-1,1,0
0,2936,5070,-1,1,0
0,2937,710,-1,1,0
0,2938,1060,-1,1,0
0,2939,5860,-1,1,0
0,2940,1520,-1,1,0
0,2941,4120,-1,1,0
0,2942,6740,-1,1,0
0,2943,1040,-1,1,0
0,2944,3610,1,1,0
0,2945,1520,1,1,0
0,2946,1260,1,1,0
0,2947,930,-1,1,0
0,2948,510,-1,1,0
0,2949,4850,-1,1,0
0,2950,3200,-1,1,0
0,2951,4540,-1,1,0
0,2952,830,-1,1,0
0,2953,2140,-1,1,0
0,2954,5680,-1,1,0
0,2955,7400,-1,1,0
0,2956,4600,1,1,0
0,2957,3950,-1,1,0
0,2958,2720,-1,1,0
0,2959,1370,-1,1,0
0,2960,1790,-1,1,0
0,2961,1690,1,1,0
0,2962,5490,-1,1,0
0,2963,4180,-1,1,0
0,2964,1500,-1,1,0
0,2965,6690,-1,1,0
0,2966,5770,-1,1,0
0,2967,1120,-1,1,0
0,2968,13990,-1,1,0
0,2969,3050,-1,1,0
0,2970,2500,-1,1,0
0,2971,3070,-1,1,0
0,2972,1740,-1,1,0
0,2973,3500,-1,1,0
0,2974,1280,-1,1,0
0,2975,6190,-1,1,0
0,2976,3290,-1,1,0
0,2977,2190,-1,1,0
0,2978,10860,-1,1,0
0,2979,1140,-1,1,0
0,2980,1550,-1,1,0
0,2981,2700,-1,1,0
0,2982,3310,-1,1,0
0,2983,1820,-1,1,0
0,2984,7030,-1,1,0
0,2985,4030,1,1,0
0,2986,800,-1,1,0
0,2987,2160,-1,1,0
0,2988,3940,-1,1,0
0,2989,1150,-1,1,0
0,2990,720,-1,1,0
0,2991,1220,-1,1,0
0,2992,560,-1,1,0
0,2993,660,-1,1,0
0,2994,6140,-1,1,0
0,2995,3410,1,1,0
0,2996,2030,-1,1,0
0,2997,6840,1,1,0
0,2998,690,-1,1,0
0,2999,7660,-1,1,0
0,3000,790,-1,1,0
0,3001,840,-1,1,0
0,3002,3710,-1,1,0
0,3003,690,-1,1,0
0,3004,980,-1,1,0
0,3005,3320,-1,1,0
0,3006,4170,-1,1,0
0,3007,1890,-1,1,0
0,3008,3040,1,1,0
0,3009,5440,-1,1,0
0,3010,3250,-1,1,0
0,3011,980,-1,1,0
0,3012,4040,-1,1,0
0,3013,1120,-1,1,0
0,3014,3030,-1,1,0
0,3015,3500,-1,1,0
0,3016,4070,-1,1,0
0,3017,4090,-1,1,0
0,3018,8960,-1,1,0
0,3019,6800,1,1,0
0,3020,740,-1,1,0
0,3021,2080,1,1,0
0,3022,2560,-1,1,0
0,3023,510,-1,1,0
0,3024,1720,-1,1,0
0,3025,1690,-1,1,0
0,3026,1170,-1,1,0
0,3027,1890,-1,1,0
0,3028,2970,-1,1,0
0,3029,550,-1,1,0
0,3030,3350,-1,1,0
0,3031,3870,-1,1,0
0,3032,4820,-1,1,0
0,3033,9330,-1,1,0
0,3034,1340,-1,1,0
0,3035,1510,-1,1,0
0,3036,1060,1,1,0
0,3037,3100,-1,1,0
0,3038,680,-1,1,0
0,3039,550,-1,1,0
0,3040,3600,-1,1,0
0,3041,480,-1,1,0
0,3042,1760,1,1,0
0,3043,740,-1,1,0
0,3044,6300,1,1,0
0,3045,1610,-1,1,0
0,3046,2970,-1,1,0
0,3047,1750,-1,1,0
0,3048,3570,-1,1,0
0,3049,2930,1,1,0
0,3050,910,-1,1,0
0,3051,7420,1,1,0
0,3052,4230,-1,1,0
0,3053,6230,1,1,0
0,3054,3660,-1,1,0
0,3055,3210,-1,1,0
0,3056,6810,-1,1,0
0,3057,1590,-1,1,0
0,3058,7540,-1,1,0
0,3059,3900,1,1,0
0,3060,7780,1,1,0
0,3061,840,-1,1,0
0,3062,10440,-1,1,0
0,3063,2490,-1,1,0
0,3064,4420,-1,1,0
0,3065,4430,-1,1,0
0,3066,1020,-1,1,0
0,3067,3130,-1,1,0
0,3068,960,-1,1,0
0,3069,1960,1,1,0
0,3070,12280,-1,1,0
0,3071,2350,-1,1,0
0,3072,6140,1,1,0
0,3073,11180,-1,1,0
0,3074,560,-1,1,0
0,3075,680,-1,1,0
0,3076,1290,-1,1,0
0,3077,1890,-1,1,0
0,3078,2250,-1,1,0
0,3079,4690,-1,1,0
0,3080,17140,-1,1,0
0,3081,1350,-1,1,0
0,3082,2790,-1,1,0
0,3083,18000,-1,1,0
0,3084,1420,1,1,0
0,3085,2240,-1,1,0
0,3086,3870,-1,1,0
0,3087,8910,-1,1,0
0,3088,3260,-1,1,0
0,3089,1240,1,1,0
0,3090,1130,-1,1,0
0,3091,7820,-1,1,0
0,3092,1200,-1,1,0
0,3093,500,-1,1,0
0,3094,12820,-1,1,0
0,3095,7860,-1,1,0
0,3096,2590,-1,1,0
0,3097,870,-1,1,0
0,3098,2370,-1,1,0
0,3099,3240,-1,1,0
0,3100,1210,-1,1,0
0,3101,8810,-1,1,0
0,3102,820,-1,1,0
0,3103,3580,-1,1,0
0,3104,2320,-1,1,0
0,3105,3270,-1,1,0
0,3106,3290,-1,1,0
0,3107,4190,1,1,0
0,3108,5360,-1,1,0
0,3109,2160,1,1,0
0,3110,2350,-1,1,0
0,3111,3780,1,1,0
0,3112,720,-1,1,0
0,3113,3460,-1,1,0
0,3114,5370,-1,1,0
0,3115,4990,1,1,0
0,3116,3120,-1,1,0
0,3117,2590,-1,1,0
0,3118,5330,-1,1,0
0,3119,13390,1,1,0
0,3120,4490,-1,1,0
0,3121,4650,-1,1,0
0,3122,1360,-1,1,0
0,3123,2410,-1,1,0
0,3124,3290,-1,1,0
0,3125,5100,-1,1,0
0,3126,3970,-1,1,0
0,3127,610,-1,1,0
0,3128,1160,-1,1,0
0,3129,2070,-1,1,0
0,3130,1990,-1,1,0
0,3131,4950,-1,1,0
0,3132,2540,-1,1,0
0,3133,2510,-1,1,0
0,3134,3240,1,1,0
0,3135,1790,-1,1,0
0,3136,830,-1,1,0
0,3137,8090,-1,1,0
0,3138,2570,-1,1,0
0,3139,3620,-1,1,0
0,3140,2590,-1,1,0
0,3141,1090,-1,1,0
0,3142,3260,-1,1,0
0,3143,8360,-1,1,0
0,3144,1050,-1,1,0
0,3145,940,-1,1,0
0,3146,1000,-1,1,0
0,3147,3220,-1,1,0
0,3148,4600,-1,1,0
0,3149,2810,-1,1,0
0,3150,2390,-1,1,0
0,3151,1000,1,1,0
0,3152,3120,-1,1,0
0,3153,3960,-1,1,0
0,3154,3230,-1,1,0
0,3155,1370,-1,1,0
0,3156,830,-1,1,0
0,3157,570,-1,1,0
0,3158,2750,-1,1,0
0,3159,2980,-1,1,0
0,3160,6120,1,1,0
0,3161,5440,-1,1,0
0,3162,4020,-1,1,0
0,3163,7500,-1,1,0
0,3164,7850,-1,1,0
0,3165,2330,-1,1,0
0,3166,7340,1,1,0
0,3167,4170,-1,1,0
0,3168,1890,-1,1,0
0,3169,7670,-1,1,0
0,3170,4680,-1,1,0
0,3171,3040,1,1,0
0,3172,5700,1,1,0
0,3173,3910,-1,1,0
0,3174,2210,-1,1,0
0,3175,1750,-1,1,0
0,3176,550,-1,1,0
0,3177,7240,-1,1,0
0,3178,1180,-1,1,0
0,3179,6770,-1,1,0
0,3180,2090,-1,1,0
0,3181,2770,-1,1,0
0,3182,11220,-1,1,0
0,3183,7120,-1,1,0
0,3184,2510,-1,1,0
0,3185,2830,-1,1,0
0,3186,2640,-1,1,0
0,3187,2480,-1,1,0
0,3188,3370,-1,1,0
0,3189,1630,1,1,0
0,3190,5350,-1,1,0
0,3191,2060,-1,1,0
0,3192,2010,1,1,0
0,3193,4050,-1,1,0
0,3194,5200,1,1,0
0,3195,3020,-1,1,0
0,3196,1840,-1,1,0
0,3197,2400,-1,1,0
0,3198,900,-1,1,0
0,3199,10480,-1,1,0
0,3200,980,1,-1,-1
0,3201,1680,1,-1,-1
0,3202,1680,-1,-1,-1
0,3203,6280,1,-1,-1
0,3204,8400,1,-1,-1
0,3205,12820,1,-1,-1
0,3206,3850,1,-1,-1
0,3207,3370,1,-1,-1
0,3208,9800,1,-1,-1
0,3209,3180,1,-1,-1
0,3210,3400,1,-1,-1
0,3211,5320,-1,-1,-1
0,3212,3570,1,-1,-1
0,3213,5470,1,-1,-1
0,3214,1010,-1,-1,-1
0,3215,2250,-1,-1,-1
0,3216,7060,1,-1,-1
0,3217,16300,-1,-1,-1
0,3218,6450,-1,-1,-1
0,3219,3550,-1,-1,-1
0,3220,3360,-1,-1,-1
0,3221,1250,1,-1,-1
0,3222,6220,-1,-1,-1
0,3223,8410,1,-1,-1
0,3224,560,1,-1,-1
0,3225,3100,-1,-1,-1
0,3226,2660,1,-1,-1
0,3227,3390,-1,-1,-1
0,3228,3890,-1,-1,-1
0,3229,2740,-1,-1,-1
0,3230,1180,1,-1,-1
0,3231,2730,1,-1,-1
0,3232,5140,1,-1,-1
0,3233,4920,1,-1,-1
0,3234,2190,1,-1,-1
0,3235,3970,-1,-1,-1
0,3236,3880,-1,-1,-1
0,3237,2840,1,-1,-1
0,3238,3500,-1,-1,-1
0,3239,5750,1,-1,-1
0,3240,870,1,-1,-1
0,3241,10860,-1,-1,-1
0,3242,1000,-1,-1,-1
0,3243,7590,1,-1,-1
0,3244,910,1,-1,-1
0,3245,3330,-1,-1,-1
0,3246,3280,1,-1,-1
0,3247,2410,-1,-1,-1
0,3248,760,1,-1,-1
0,3249,1980,-1,-1,-1
0,3250,2310,1,-1,-1
0,3251,2620,-1,-1,-1
0,3252,3300,-1,-1,-1
0,3253,5070,1,-1,-1
0,3254,2780,1,-1,-1
0,3255,4590,-1,-1,-1
0,3256,3690,-1,-1,-1
0,3257,4700,1,-1,-1
0,3258,3360,1,-1,-1
0,3259,5580,-1,-1,-1
0,3260,7440,1,-1,-1
0,3261,1430,-1,-1,-1
0,3262,4800,-1,-1,-1
0,3263,5170,1,-1,-1
0,3264,2330,1,-1,-1
0,3265,11520,1,-1,-1
0,3266,5520,1,-1,-1
0,3267,3810,1,-1,-1
0,3268,3030,1,-1,-1
0,3269,7260,-1,-1,-1
0,3270,2980,-1,-1,-1
0,3271,2950,1,-1,-1
0,3272,1520,-1,-1,-1
0,3273,3890,-1,-1,-1
0,3274,1570,-1,-1,-1
0,3275,5200,1,-1,-1
0,3276,2520,1,-1,-1
0,3277,1960,-1,-1,-1
0,3278,2590,-1,-1,-1
0,3279,4250,1,-1,-1
0,3280,8310,-1,-1,-1
0,3281,7010,-1,-1,-1
0,3282,5350,1,-1,-1
0,3283,3030,-1,-1,-1
0,3284,1220,1,-1,-1
0,3285,930,1,-1,-1
0,3286,3040,1,-1,-1
0,3287,2170,1,-1,-1
0,3288,1500,1,-1,-1
0,3289,4540,1,-1,-1
0,3290,9700,1,-1,-1
0,3291,2210,-1,-1,-1
0,3292,8430,-1,-1,-1
0,3293,1700,1,-1,-1
0,3294,2670,1,-1,-1
0,3295,4320,-1,-1,-1
0,3296,3920,1,-1,-1
0,3297,4800,1,-1,-1
0,3298,4000,-1,-1,-1
0,3299,7870,-1,-1,-1
0,3300,4100,-1,-1,-1
0,3301,2420,-1,-1,-1
0,3302,3890,1,-1,-1
0,3303,12650,-1,-1,-1
0,3304,3120,1,-1,-1
0,3305,3840,1,-1,-1
0,3306,2990,1,-1,-1
0,3307,7360,1,-1,-1
0,3308,4390,-1,-1,-1
0,3309,5690,1,-1,-1
0,3310,3010,-1,-1,-1
0,3311,4910,1,-1,-1
0,3312,1180,1,-1,-1
0,3313,1430,-1,-1,-1
0,3314,3810,-1,-1,-1
0,3315,15900,-1,-1,-1
0,3316,3110,-1,-1,-1
0,3317,1310,1,-1,-1
0,3318,520,-1,-1,-1
0,3319,1530,1,-1,-1
0,3320,1140,-1,-1,-1
0,3321,1970,-1,-1,-1
0,3322,2630,1,-1,-1
0,3323,3140,1,-1,-1
0,3324,3820,1,-1,-1
0,3325,1110,-1,-1,-1
0,3326,2860,1,-1,-1
0,3327,3320,1,-1,-1
0,3328,5920,1,-1,-1
0,3329,2520,1,-1,-1
0,3330,7020,-1,-1,-1
0,3331,2870,-1,-1,-1
0,3332,12570,1,-1,-1
0,3333,2020,1,-1,-1
0,3334,4230,-1,-1,-1
0,3335,2810,1,-1,-1
0,3336,7670,1,-1,-1
0,3337,11510,-1,-1,-1
0,3338,1010,-1,-1,-1
0,3339,480,-1,-1,-1
0,3340,2240,1,-1,-1
0,3341,2610,1,-1,-1
0,3342,5010,-1,-1,-1
0,3343,3960,1,-1,-1
0,3344,3800,-1,-1,-1
0,3345,5630,1,-1,-1
0,3346,4240,1,-1,-1
0,3347,4100,-1,-1,-1
0,3348,15120,-1,-1,-1
0,3349,5380,1,-1,-1
0,3350,2860,-1,-1,-1
0,3351,3190,-1,-1,-1
0,3352,11780,-1,-1,-1
0,3353,11110,1,-1,-1
0,3354,3040,1,-1,-1
0,3355,5430,1,-1,-1
0,3356,580,1,-1,-1
0,3357,2450,-1,-1,-1
0,3358,1370,1,-1,-1
0,3359,3580,-1,-1,-1
0,3360,1710,-1,-1,-1
0,3361,1810,-1,-1,-1
0,3362,9540,1,-1,-1
0,3363,2000,-1,-1,-1
0,3364,2430,-1,-1,-1
0,3365,2620,-1,-1,-1
0,3366,4980,-1,-1,-1
0,3367,4470,1,-1,-1
0,3368,7920,-1,-1,-1
0,3369,10950,1,-1,-1
0,3370,5050,1,-1,-1
0,3371,4060,1,-1,-1
0,3372,10090,1,-1,-1
0,3373,5970,1,-1,-1
0,3374,15120,-1,-1,-1
0,3375,13280,-1,-1,-1
0,3376,4000,1,-1,-1
0,3377,10030,-1,-1,-1
0,3378,11810,-1,-1,-1
0,3379,10670,-1,-1,-1
0,3380,1040,1,-1,-1
0,3381,1200,1,-1,-1
0,3382,9240,1,-1,-1
0,3383,3540,1,-1,-1
0,3384,4720,-1,-1,-1
0,3385,940,1,-1,-1
0,3386,2740,1,-1,-1
0,3387,8770,1,-1,-1
0,3388,810,-1,-1,-1
0,3389,1180,1,-1,-1
0,3390,2280,1,-1,-1
0,3391,4700,-1,-1,-1
0,3392,2940,-1,-1,-1
0,3393,8200,-1,-1,-1
0,3394,3180,1,-1,-1
0,3395,780,1,-1,-1
0,3396,2440,1,-1,-1
0,3397,840,1,-1,-1
0,3398,5900,1,-1,-1
0,3399,4460,1,-1,-1
0,3400,5130,-1,-1,-1
0,3401,1740,1,-1,-1
0,3402,2460,1,-1,-1
0,3403,3420,-1,-1,-1
0,3404,1490,-1,-1,-1
0,3405,5030,-1,-1,-1
0,3406,3870,1,-1,-1
0,3407,1030,1,-1,-1
0,3408,1790,-1,-1,-1
0,3409,4360,-1,-1,-1
0,3410,3560,1,-1,-1
0,3411,2520,1,-1,-1
0,3412,1100,1,-1,-1
0,3413,4070,1,-1,-1
0,3414,5960,-1,-1,-1
0,3415,6340,-1,-1,-1
0,3416,2180,1,-1,-1
0,3417,3700,-1,-1,-1
0,3418,3280,1,-1,-1
0,3419,2040,1,-1,-1
0,3420,4720,-1,-1,-1
0,3421,3360,1,-1,-1
0,3422,2800,1,-1,-1
0,3423,1140,1,-1,-1
0,3424,4150,-1,-1,-1
0,3425,1720,-1,-1,-1
0,3426,1410,1,-1,-1
0,3427,13040,-1,-1,-1
0,3428,1880,1,-1,-1
0,3429,3650,1,-1,-1
0,3430,2980,1,-1,-1
0,3431,1160,1,-1,-1
0,3432,3160,1,-1,-1
0,3433,19310,-1,-1,-1
0,3434,3590,1,-1,-1
0,3435,1080,-1,-1,-1
0,3436,5930,1,-1,-1
0,3437,1300,1,-1,-1
0,3438,4580,1,-1,-1
0,3439,2290,-1,-1,-1
0,3440,3180,1,-1,-1
0,3441,1810,1,-1,-1
0,3442,3770,1,-1,-1
0,3443,4750,-1,-1,-1
0,3444,2490,1,-1,-1
0,3445,990,-1,-1,-1
0,3446,13680,1,-1,-1
0,3447,540,-1,-1,-1
0,3448,12680,-1,-1,-1
0,3449,4580,-1,-1,-1
0,3450,2850,-1,-1,-1
0,3451,8180,-1,-1,-1
0,3452,4630,-1,-1,-1
0,3453,6370,-1,-1,-1
0,3454,6010,1,-1,-1
0,3455,4390,-1,-1,-1
0,3456,7280,-1,-1,-1
0,3457,3000,1,-1,-1
0,3458,6360,-1,-1,-1
0,3459,2140,-1,-1,-1
0,3460,590,1,-1,-1
0,3461,4290,-1,-1,-1
0,3462,2860,-1,-1,-1
0,3463,2490,1,-1,-1
0,3464,1560,1,-1,-1
0,3465,1090,1,-1,-1
0,3466,1900,1,-1,-1
0,3467,630,1,-1,-1
0,3468,5420,-1,-1,-1
0,3469,1590,-1,-1,-1
0,3470,3030,-1,-1,-1
0,3471,2810,1,-1,-1
0,3472,4460,1,-1,-1
0,3473,730,1,-1,-1
0,3474,370,-1,-1,-1
0,3475,840,-1,-1,-1
0,3476,3880,-1,-1,-1
0,3477,3790,-1,-1,-1
0,3478,3110,-1,-1,-1
0,3479,10220,-1,-1,-1
0,3480,1850,-1,-1,-1
0,3481,3280,1,-1,-1
0,3482,4510,-1,-1,-1
0,3483,2080,1,-1,-1
0,3484,2810,1,-1,-1
0,3485,4350,-1,-1,-1
0,3486,4300,-1,-1,-1
0,3487,9380,1,-1,-1
0,3488,860,1,-1,-1
0,3489,5080,1,-1,-1
0,3490,4170,-1,-1,-1
0,3491,7990,-1,-1,-1
0,3492,5240,1,-1,-1
0,3493,3480,1,-1,-1
0,3494,4280,-1,-1,-1
0,3495,10770,-1,-1,-1
0,3496,1080,1,-1,-1
0,3497,12680,-1,-1,-1
0,3498,7960,1,-1,-1
0,3499,4130,-1,-1,-1
0,3500,11050,-1,-1,-1
0,3501,3070,-1,-1,-1
0,3502,2450,-1,-1,-1
0,3503,2420,1,-1,-1
0,3504,1360,1,-1,-1
0,3505,4440,-1,-1,-1
0,3506,8200,-1,-1,-1
0,3507,15000,-1,-1,-1
0,3508,1460,1,-1,-1
0,3509,510,1,-1,-1
0,3510,1270,-1,-1,-1
0,3511,1850,1,-1,-1
0,3512,2980,1,-1,-1
0,3513,12970,-1,-1,-1
0,3514,1650,-1,-1,-1
0,3515,17260,-1,-1,-1
0,3516,1600,-1,-1,-1
0,3517,1680,-1,-1,-1
0,3518,1490,-1,-1,-1
0,3519,2940,-1,-1,-1
0,3520,6440,-1,-1,-1
0,3521,3000,1,-1,-1
0,3522,3230,1,-1,-1
0,3523,3830,1,-1,-1
0,3524,7260,-1,-1,-1
0,3525,1860,1,-1,-1
0,3526,14650,-1,-1,-1
0,3527,1820,-1,-1,-1
0,3528,3540,-1,-1,-1
0,3529,4880,-1,-1,-1
0,3530,3770,-1,-1,-1
0,3531,5610,-1,-1,-1
0,3532,4390,-1,-1,-1
0,3533,4590,-1,-1,-1
0,3534,4640,1,-1,-1
0,3535,1040,1,-1,-1
0,3536,1060,1,-1,-1
0,3537,1780,-1,-1,-1
0,3538,5910,1,-1,-1
0,3539,7910,-1,-1,-1
0,3540,2970,1,-1,-1
0,3541,1120,1,-1,-1
0,3542,5660,1,-1,-1
0,3543,1960,-1,-1,-1
0,3544,1240,-1,-1,-1
0,3545,1700,1,-1,-1
0,3546,1780,-1,-1,-1
0,3547,3430,-1,-1,-1
0,3548,4410,1,-1,-1
0,3549,3100,1,-1,-1
0,3550,3550,1,-1,-1
0,3551,2050,1,-1,-1
0,3552,14020,1,-1,-1
0,3553,9890,1,-1,-1
0,3554,13920,-1,-1,-1
0,3555,9670,1,-1,-1
0,3556,3270,1,-1,-1
0,3557,2060,1,-1,-1
0,3558,9830,1,-1,-1
0,3559,18120,1,-1,-1
0,3560,2160,-1,-1,-1
0,3561,5030,-1,-1,-1
0,3562,1130,1,-1,-1
0,3563,2590,-1,-1,-1
0,3564,9200,-1,-1,-1
0,3565,1230,1,-1,-1
0,3566,3230,1,-1,-1
0,3567,3590,-1,-1,-1
0,3568,3080,-1,-1,-1
0,3569,3450,-1,-1,-1
0,3570,6300,-1,-1,-1
0,3571,1900,-1,-1,-1
0,3572,930,1,-1,-1
0,3573,1780,-1,-1,-1
0,3574,1500,-1,-1,-1
0,3575,4460,1,-1,-1
0,3576,4240,-1,-1,-1
0,3577,2470,-1,-1,-1
0,3578,4660,-1,-1,-1
0,3579,4370,-1,-1,-1
0,3580,5100,1,-1,-1
0,3581,660,1,-1,-1
0,3582,1010,-1,-1,-1
0,3583,9070,-1,-1,-1
0,3584,1250,1,-1,-1
0,3585,1760,1,-1,-1
0,3586,2740,1,-1,-1
0,3587,970,-1,-1,-1
0,3588,2330,1,-1,-1
0,3589,3420,-1,-1,-1
0,3590,6960,-1,-1,-1
0,3591,4530,-1,-1,-1
0,3592,6640,-1,-1,-1
0,3593,1750,-1,-1,-1
0,3594,3390,-1,-1,-1
0,3595,2010,-1,-1,-1
0,3596,11580,1,-1,-1
0,3597,1500,-1,-1,-1
0,3598,7380,-1,-1,-1
0,3599,6450,1,-1,-1
0,3600,660,-1,1,0
0,3601,3200,-1,1,0
0,3602,1420,-1,1,0
0,3603,2590,-1,1,0
0,3604,3070,-1,1,0
0,3605,2830,1,1,0
0,3606,510,-1,1,0
0,3607,3940,-1,1,0
0,3608,13400,1,1,0
0,3609,4220,-1,1,0
0,3610,3290,1,1,0
0,3611,4960,-1,1,0
0,3612,9970,-1,1,0
0,3613,6190,-1,1,0
0,3614,2310,1,1,0
0,3615,3950,1,1,0
0,3616,4040,1,1,0
0,3617,8960,-1,1,0
0,3618,2700,1,1,0
0,3619,7530,1,1,0
0,3620,910,-1,1,0
0,3621,3530,-1,1,0
0,3622,1840,-1,1,0
0,3623,1750,-1,1,0
0,3624,6040,1,1,0
0,3625,660,-1,1,0
0,3626,1910,1,1,0
0,3627,1530,1,1,0
0,3628,2810,-1,1,0
0,3629,2100,-1,1,0
0,3630,3470,-1,1,0
0,3631,3840,1,1,0
0,3632,3360,-1,1,0
0,3633,13880,1,1,0
0,3634,5390,-1,1,0
0,3635,4560,-1,1,0
0,3636,6220,-1,1,0
0,3637,2150,1,1,0
0,3638,2030,-1,1,0
0,3639,2990,-1,1,0
0,3640,3630,-1,1,0
0,3641,1130,-1,1,0
0,3642,3310,-1,1,0
0,3643,3100,-1,1,0
0,3644,1550,-1,1,0
0,3645,3770,-1,1,0
0,3646,1420,-1,1,0
0,3647,2290,-1,1,0
0,3648,4410,-1,1,0
0,3649,2160,-1,1,0
0,3650,1490,1,1,0
0,3651,3170,-1,1,0
0,3652,3390,-1,1,0
0,3653,6860,-1,1,0
0,3654,4030,-1,1,0
0,3655,2490,1,1,0
0,3656,2410,-1,1,0
0,3657,12300,-1,1,0
0,3658,5610,1,1,0
0,3659,2700,-1,1,0
0,3660,970,-1,1,0
0,3661,6340,-1,1,0
0,3662,940,-1,1,0
0,3663,2470,-1,1,0
0,3664,11600,-1,1,0
0,3665,480,-1,1,0
0,3666,3180,-1,1,0
0,3667,4630,1,1,0
0,3668,2290,-1,1,0
0,3669,1150,1,1,0
0,3670,560,-1,1,0
0,3671,4630,-1,1,0
0,3672,2100,-1,1,0
0,3673,2000,-1,1,0
0,3674,4420,-1,1,0
0,3675,9820,-1,1,0
0,3676,1300,-1,1,0
0,3677,3920,-1,1,0
0,3678,3360,1,1,0
0,3679,3700,1,1,0
0,3680,3400,1,1,0
0,3681,3050,-1,1,0
0,3682,1040,1,1,0
0,3683,6790,-1,1,0
0,3684,4510,1,1,0
0,3685,2550,-1,1,0
0,3686,1500,-1,1,0
0,3687,4670,1,1,0
0,3688,7930,-1,1,0
0,3689,1930,-1,1,0
0,3690,3410,-1,1,0
0,3691,7230,1,1,0
0,3692,19100,1,1,0
0,3693,2160,1,1,0
0,3694,990,-1,1,0
0,3695,3030,-1,1,0
0,3696,3000,1,1,0
0,3697,4900,-1,1,0
0,3698,2690,1,1,0
0,3699,12380,-1,1,0
0,3700,960,-1,1,0
0,3701,1240,1,1,0
0,3702,1110,-1,1,0
0,3703,4920,-1,1,0
0,3704,1220,-1,1,0
0,3705,6800,1,1,0
0,3706,2340,1,1,0
0,3707,9980,-1,1,0
0,3708,2870,-1,1,0
0,3709,1500,-1,1,0
0,3710,2900,1,1,0
0,3711,3300,-1,1,0
0,3712,5720,-1,1,0
0,3713,2020,-1,1,0
0,3714,1120,-1,1,0
0,3715,1370,-1,1,0
0,3716,900,-1,1,0
0,3717,2060,1,1,0
0,3718,1360,-1,1,0
0,3719,8400,-1,1,0
0,3720,620,-1,1,0
0,3721,6170,-1,1,0
0,3722,3640,1,1,0
0,3723,5580,1,1,0
0,3724,730,-1,1,0
0,3725,2040,-1,1,0
0,3726,4630,-1,1,0
0,3727,2230,-1,1,0
0,3728,3620,-1,1,0
0,3729,750,-1,1,0
0,3730,3440,-1,1,0
0,3731,3600,1,1,0
0,3732,4800,1,1,0
0,3733,2090,1,1,0
0,3734,8460,1,1,0
0,3735,1310,-1,1,0
0,3736,700,1,1,0
0,3737,1760,1,1,0
0,3738,3530,-1,1,0
0,3739,3730,-1,1,0
0,3740,2860,-1,1,0
0,3741,8940,-1,1,0
0,3742,1820,1,1,0
0,3743,10070,1,1,0
0,3744,3370,-1,1,0
0,3745,4620,1,1,0
0,3746,5450,1,1,0
0,3747,9310,1,1,0
0,3748,790,-1,1,0
0,3749,7600,-1,1,0
0,3750,10120,-1,1,0
0,3751,1780,-1,1,0
0,3752,850,-1,1,0
0,3753,2100,1,1,0
0,3754,5690,-1,1,0
0,3755,980,-1,1,0
0,3756,3450,1,1,0
0,3757,3540,-1,1,0
0,3758,2190,1,1,0
0,3759,7440,-1,1,0
0,3760,3550,-1,1,0
0,3761,7150,-1,1,0
0,3762,1720,-1,1,0
0,3763,3010,-1,1,0
0,3764,1560,-1,1,0
0,3765,1130,1,1,0
0,3766,680,-1,1,0
0,3767,1820,-1,1,0
0,3768,420,-1,1,0
0,3769,12620,-1,1,0
0,3770,10380,1,1,0
0,3771,350,-1,1,0
0,3772,1830,-1,1,0
0,3773,540,-1,1,0
0,3774,1300,-1,1,0
0,3775,3700,-1,1,0
0,3776,16300,1,1,0
0,3777,1970,-1,1,0
0,3778,4350,1,1,0
0,3779,4560,-1,1,0
0,3780,1220,1,1,0
0,3781,1030,-1,1,0
0,3782,17140,-1,1,0
0,3783,7600,-1,1,0
0,3784,2780,-1,1,0
0,3785,6430,-1,1,0
0,3786,910,-1,1,0
0,3787,4520,-1,1,0
0,3788,2760,-1,1,0
0,3789,1230,-1,1,0
0,3790,4240,1,1,0
0,3791,2970,1,1,0
0,3792,1070,-1,1,0
0,3793,1780,-1,1,0
0,3794,10050,-1,1,0
0,3795,3280,1,1,0
0,3796,3670,-1,1,0
0,3797,4240,1,1,0
0,3798,3300,-1,1,0
0,3799,3900,-1,1,0
0,3800,4000,-1,1,0
0,3801,5190,1,1,0
0,3802,2200,1,1,0
0,3803,5940,-1,1,0
0,3804,14280,-1,1,0
0,3805,1000,-1,1,0
0,3806,610,1,1,0
0,3807,3440,-1,1,0
0,3808,2670,-1,1,0
0,3809,3580,-1,1,0
0,3810,13140,-1,1,0
0,3811,2020,-1,1,0
0,3812,2320,-1,1,0
0,3813,2170,1,1,0
0,3814,3150,1,1,0
0,3815,10080,1,1,0
0,3816,3100,1,1,0
0,3817,3320,1,1,0
0,3818,1560,1,1,0
0,3819,14280,1,1,0
0,3820,1440,-1,1,0
0,3821,1700,-1,1,0
0,3822,1150,-1,1,0
0,3823,1940,-1,1,0
0,3824,1690,1,1,0
0,3825,1310,-1,1,0
0,3826,4170,1,1,0
0,3827,4010,-1,1,0
0,3828,3360,1,1,0
0,3829,11420,-1,1,0
0,3830,2630,-1,1,0
0,3831,5660,-1,1,0
0,3832,1880,1,1,0
0,3833,2510,-1,1,0
0,3834,11330,-1,1,0
0,3835,1840,-1,1,0
0,3836,3870,1,1,0
0,3837,9290,-1,1,0
0,3838,6450,1,1,0
0,3839,6230,-1,1,0
0,3840,380,-1,1,0
0,3841,830,-1,1,0
0,3842,9080,-1,1,0
0,3843,8530,1,1,0
0,3844,460,-1,1,0
0,3845,3260,1,1,0
0,3846,8040,-1,1,0
0,3847,2830,-1,1,0
0,3848,3750,-1,1,0
0,3849,2970,1,1,0
0,3850,1860,1,1,0
0,3851,7180,-1,1,0
0,3852,5450,1,1,0
0,3853,5960,-1,1,0
0,3854,930,-1,1,0
0,3855,800,-1,1,0
0,3856,2650,1,1,0
0,3857,3170,-1,1,0
0,3858,1250,-1,1,0
0,3859,5290,-1,1,0
0,3860,2690,1,1,0
0,3861,5240,1,1,0
0,3862,3190,-1,1,0
0,3863,3890,-1,1,0
0,3864,480,-1,1,0
0,3865,1510,1,1,0
0,3866,810,-1,1,0
0,3867,1310,-1,1,0
0,3868,6010,-1,1,0
0,3869,4220,1,1,0
0,3870,4930,1,1,0
0,3871,1440,-1,1,0
0,3872,2440,-1,1,0
0,3873,11250,-1,1,0
0,3874,1500,-1,1,0
0,3875,1960,1,1,0
0,3876,4430,1,1,0
0,3877,3630,-1,1,0
0,3878,10820,-1,1,0
0,3879,1040,1,1,0
0,3880,1310,1,1,0
0,3881,3140,-1,1,0
0,3882,2370,-1,1,0
0,3883,4100,-1,1,0
0,3884,9820,-1,1,0
0,3885,8530,1,1,0
0,3886,10560,-1,1,0
0,3887,370,-1,1,0
0,3888,9330,1,1,0
0,3889,1530,1,1,0
0,3890,1100,-1,1,0
0,3891,8510,-1,1,0
0,3892,2450,-1,1,0
0,3893,2430,-1,1,0
0,3894,6470,1,1,0
0,3895,2390,-1,1,0
0,3896,2310,1,1,0
0,3897,2160,1,1,0
0,3898,3210,1,1,0
0,3899,2260,-1,1,0
0,3900,1890,1,1,0
0,3901,1800,-1,1,0
0,3902,830,-1,1,0
0,3903,6130,-1,1,0
0,3904,8980,-1,1,0
0,3905,3250,-1,1,0
0,3906,4320,-1,1,0
0,3907,950,-1,1,0
0,3908,12190,-1,1,0
0,3909,2080,1,1,0
0,3910,2020,1,1,0
0,3911,4310,-1,1,0
0,3912,4030,-1,1,0
0,3913,2260,1,1,0
0,3914,1900,-1,1,0
0,3915,860,-1,1,0
0,3916,9280,1,1,0
0,3917,1680,1,1,0
0,3918,3240,1,1,0
0,3919,590,-1,1,0
0,3920,6560,-1,1,0
0,3921,9320,1,1,0
0,3922,1990,-1,1,0
0,3923,10720,-1,1,0
0,3924,26150,-1,1,0
0,3925,7600,1,1,0
0,3926,2160,1,1,0
0,3927,4070,1,1,0
0,3928,7330,-1,1,0
0,3929,4790,1,1,0
0,3930,4090,1,1,0
0,3931,1920,-1,1,0
0,3932,2290,-1,1,0
0,3933,3140,1,1,0
0,3934,8450,1,1,0
0,3935,1820,-1,1,0
0,3936,4850,-1,1,0
0,3937,12270,-1,1,0
0,3938,5270,-1,1,0
0,3939,6490,1,1,0
0,3940,2840,-1,1,0
0,3941,1260,-1,1,0
0,3942,6740,-1,1,0
0,3943,9080,-1,1,0
0,3944,900,-1,1,0
0,3945,4520,1,1,0
0,3946,3670,1,1,0
0,3947,10860,1,1,0
0,3948,1180,-1,1,0
0,3949,6620,-1,1,0
0,3950,14840,-1,1,0
0,3951,4020,-1,1,0
0,3952,1520,1,1,0
0,3953,2190,1,1,0
0,3954,4070,-1,1,0
0,3955,890,-1,1,0
0,3956,6110,1,1,0
0,3957,1580,-1,1,0
0,3958,3940,-1,1,0
0,3959,3300,-1,1,0
0,3960,3040,-1,1,0
0,3961,3110,-1,1,0
0,3962,8340,-1,1,0
0,3963,3950,-1,1,0
0,3964,2520,-1,1,0
0,3965,2510,-1,1,0
0,3966,17050,-1,1,0
0,3967,1400,-1,1,0
0,3968,8450,1,1,0
0,3969,1330,-1,1,0
0,3970,7920,-1,1,0
0,3971,9060,-1,1,0
0,3972,2420,1,1,0
0,3973,7300,-1,1,0
0,3974,1180,-1,1,0
0,3975,5430,-1,1,0
0,3976,1880,-1,1,0
0,3977,9730,1,1,0
0,3978,5660,-1,1,0
0,3979,820,1,1,0
0,3980,8760,-1,1,0
0,3981,4900,-1,1,0
0,3982,8740,1,1,0
0,3983,4890,1,1,0
0,3984,3690,1,1,0
0,3985,7700,-1,1,0
0,3986,770,-1,1,0
0,3987,4030,1,1,0
0,3988,1000,-1,1,0
0,3989,6360,-1,1,0
0,3990,730,1,1,0
0,3991,3310,-1,1,0
0,3992,4380,1,1,0
0,3993,1420,-1,1,0
0,3994,2950,-1,1,0
0,3995,3370,-1,1,0
0,3996,4740,-1,1,0
0,3997,13670,-1,1,0
0,3998,4850,-1,1,0
0,3999,1160,1,1,0
0,4000,3540,1,-1,-1
0,4001,1840,1,-1,-1
0,4002,1930,-1,-1,-1
0,4003,4150,1,-1,-1
0,4004,5290,1,-1,-1
0,4005,8360,1,-1,-1
0,4006,6450,-1,-1,-1
0,4007,7070,-1,-1,-1
0,4008,3260,1,-1,-1
0,4009,2240,1,-1,-1
0,4010,17280,1,-1,-1
0,4011,5900,-1,-1,-1
0,4012,1590,-1,-1,-1
0,4013,2730,-1,-1,-1
0,4014,1700,-1,-1,-1
0,4015,3030,1,-1,-1
0,4016,6220,1,-1,-1
0,4017,10850,1,-1,-1
0,4018,8440,1,-1,-1
0,4019,2100,-1,-1,-1
0,4020,1340,1,-1,-1
0,4021,5230,1,-1,-1
0,4022,3540,1,-1,-1
0,4023,3230,-1,-1,-1
0,4024,4760,-1,-1,-1
0,4025,5780,-1,-1,-1
0,4026,3640,1,-1,-1
0,4027,7000,-1,-1,-1
0,4028,1680,1,-1,-1
0,4029,2170,1,-1,-1
0,4030,520,1,-1,-1
0,4031,12460,-1,-1,-1
0,4032,3790,1,-1,-1
0,4033,3100,1,-1,-1
0,4034,3090,1,-1,-1
0,4035,1350,1,-1,-1
0,4036,3960,-1,-1,-1
0,4037,1490,1,-1,-1
0,4038,4450,1,-1,-1
0,4039,18210,-1,-1,-1
0,4040,2720,1,-1,-1
0,4041,6280,-1,-1,-1
0,4042,1560,1,-1,-1
0,4043,3270,1,-1,-1
0,4044,2790,-1,-1,-1
0,4045,12690,1,-1,-1
0,4046,6150,1,-1,-1
0,4047,3440,-1,-1,-1
0,4048,2020,-1,-1,-1
0,4049,2870,-1,-1,-1
0,4050,6840,-1,-1,-1
0,4051,6320,1,-1,-1
0,4052,3020,1,-1,-1
0,4053,7200,1,-1,-1
0,4054,3090,1,-1,-1
0,4055,780,1,-1,-1
0,4056,2780,1,-1,-1
0,4057,2880,1,-1,-1
0,4058,730,1,-1,-1
0,4059,6300,1,-1,-1
0,4060,1610,1,-1,-1
0,4061,10940,-1,-1,-1
0,4062,2220,-1,-1,-1
0,4063,5100,-1,-1,-1
0,4064,1370,-1,-1,-1
0,4065,590,1,-1,-1
0,4066,1040,1,-1,-1
0,4067,1100,1,-1,-1
0,4068,3020,1,-1,-1
0,4069,1070,1,-1,-1
0,4070,4210,1,-1,-1
0,4071,2850,1,-1,-1
0,4072,1040,1,-1,-1
0,4073,2420,1,-1,-1
0,4074,980,1,-1,-1
0,4075,3370,1,-1,-1
0,4076,1180,1,-1,-1
0,4077,1240,1,-1,-1
0,4078,1450,1,-1,-1
0,4079,750,1,-1,-1
0,4080,1870,1,-1,-1
0,4081,1050,1,-1,-1
0,4082,7600,1,-1,-1
0,4083,2740,1,-1,-1
0,4084,1800,-1,-1,-1
0,4085,4460,-1,-1,-1
0,4086,2120,-1,-1,-1
0,4087,4550,-1,-1,-1
0,4088,5590,1,-1,-1
0,4089,1040,1,-1,-1
0,4090,1370,-1,-1,-1
0,4091,3820,1,-1,-1
0,4092,3300,1,-1,-1
0,4093,11650,-1,-1,-1
0,4094,1230,1,-1,-1
0,4095,760,1,-1,-1
0,4096,4140,-1,-1,-1
0,4097,1520,-1,-1,-1
0,4098,7010,1,-1,-1
0,4099,5190,1,-1,-1
0,4100,4730,-1,-1,-1
0,4101,4400,-1,-1,-1
0,4102,730,1,-1,-1
0,4103,22600,-1,-1,-1
0,4104,3800,-1,-1,-1
0,4105,6320,1,-1,-1
0,4106,1490,-1,-1,-1
0,4107,4080,1,-1,-1
0,4108,1530,1,-1,-1
0,4109,1150,1,-1,-1
0,4110,5890,1,-1,-1
0,4111,3140,-1,-1,-1
0,4112,2560,1,-1,-1
0,4113,5230,1,-1,-1
0,4114,10570,1,-1,-1
0,4115,3920,-1,-1,-1
0,4116,4880,1,-1,-1
0,4117,2960,1,-1,-1
0,4118,5250,-1,-1,-1
0,4119,2530,1,-1,-1
0,4120,5530,-1,-1,-1
0,4121,2750,-1,-1,-1
0,4122,3380,1,-1,-1
0,4123,650,1,-1,-1
0,4124,12710,-1,-1,-1
0,4125,3150,1,-1,-1
0,4126,770,1,-1,-1
0,4127,7200,-1,-1,-1
0,4128,1140,1,-1,-1
0,4129,2640,1,-1,-1
0,4130,11510,1,-1,-1
0,4131,7110,1,-1,-1
0,4132,3980,1,-1,-1
0,4133,930,1,-1,-1
0,4134,13410,1,-1,-1
0,4135,2930,1,-1,-1
0,4136,610,1,-1,-1
0,4137,980,1,-1,-1
0,4138,7320,1,-1,-1
0,4139,7280,1,-1,-1
0,4140,2700,1,-1,-1
0,4141,2390,-1,-1,-1
0,4142,2370,-1,-1,-1
0,4143,4560,-1,-1,-1
0,4144,1820,-1,-1,-1
0,4145,3800,-1,-1,-1
0,4146,1480,1,-1,-1
0,4147,1880,1,-1,-1
0,4148,720,1,-1,-1
0,4149,6460,-1,-1,-1
0,4150,2590,1,-1,-1
0,4151,9210,-1,-1,-1
0,4152,1420,1,-1,-1
0,4153,6220,-1,-1,-1
0,4154,4120,1,-1,-1
0,4155,5340,-1,-1,-1
0,4156,4220,1,-1,-1
0,4157,3670,1,-1,-1
0,4158,2370,-1,-1,-1
0,4159,2080,-1,-1,-1
0,4160,1190,1,-1,-1
0,4161,1070,1,-1,-1
0,4162,910,1,-1,-1
0,4163,4180,1,-1,-1
0,4164,2710,1,-1,-1
0,4165,5900,1,-1,-1
0,4166,12130,1,-1,-1
0,4167,3290,1,-1,-1
0,4168,1330,-1,-1,-1
0,4169,6060,-1,-1,-1
0,4170,4210,1,-1,-1
0,4171,4690,-1,-1,-1
0,4172,3230,1,-1,-1
0,4173,8860,1,-1,-1
0,4174,6590,1,-1,-1
0,4175,6040,-1,-1,-1
0,4176,2970,-1,-1,-1
0,4177,590,1,-1,-1
0,4178,2830,1,-1,-1
0,4179,1480,1,-1,-1
0,4180,2290,1,-1,-1
0,4181,1620,-1,-1,-1
0,4182,2630,1,-1,-1
0,4183,1600,-1,-1,-1
0,4184,1040,-1,-1,-1
0,4185,8790,-1,-1,-1
0,4186,2680,-1,-1,-1
0,4187,3200,-1,-1,-1
0,4188,4350,-1,-1,-1
0,4189,1770,1,-1,-1
0,4190,3290,1,-1,-1
0,4191,1430,-1,-1,-1
0,4192,19700,1,-1,-1
0,4193,2970,-1,-1,-1
0,4194,5160,1,-1,-1
0,4195,3860,1,-1,-1
0,4196,2360,1,-1,-1
0,4197,4960,-1,-1,-1
0,4198,4080,1,-1,-1
0,4199,9120,-1,-1,-1
0,4200,8850,-1,-1,-1
0,4201,4040,1,-1,-1
0,4202,2030,-1,-1,-1
0,4203,5260,-1,-1,-1
0,4204,3840,-1,-1,-1
0,4205,3300,-1,-1,-1
0,4206,11810,-1,-1,-1
0,4207,15970,1,-1,-1
0,4208,2350,-1,-1,-1
0,4209,2640,-1,-1,-1
0,4210,4440,1,-1,-1
0,4211,4370,-1,-1,-1
0,4212,1990,1,-1,-1
0,4213,2980,-1,-1,-1
0,4214,2600,1,-1,-1
0,4215,1050,1,-1,-1
0,4216,2660,1,-1,-1
0,4217,1000,1,-1,-1
0,4218,4370,-1,-1,-1
0,4219,1340,-1,-1,-1
0,4220,1390,-1,-1,-1
0,4221,4420,1,-1,-1
0,4222,3950,-1,-1,-1
0,4223,3220,1,-1,-1
0,4224,750,1,-1,-1
0,4225,6770,-1,-1,-1
0,4226,780,1,-1,-1
0,4227,5610,-1,-1,-1
0,4228,3520,-1,-1,-1
0,4229,3170,1,-1,-1
0,4230,530,1,-1,-1
0,4231,1480,-1,-1,-1
0,4232,1050,1,-1,-1
0,4233,2370,1,-1,-1
0,4234,2310,1,-1,-1
0,4235,9400,1,-1,-1
0,4236,3230,1,-1,-1
0,4237,3140,1,-1,-1
0,4238,3520,1,-1,-1
0,4239,9420,1,-1,-1
0,4240,1980,-1,-1,-1
0,4241,2990,1,-1,-1
0,4242,3610,-1,-1,-1
0,4243,8380,1,-1,-1
0,4244,3590,1,-1,-1
0,4245,1920,-1,-1,-1
0,4246,3190,1,-1,-1
0,4247,3050,1,-1,-1
0,4248,440,1,-1,-1
0,4249,2460,-1,-1,-1
0,4250,2080,-1,-1,-1
0,4251,1560,1,-1,-1
0,4252,2990,1,-1,-1
0,4253,680,1,-1,-1
0,4254,9710,-1,-1,-1
0,4255,5140,-1,-1,-1
0,4256,830,1,-1,-1
0,4257,3020,1,-1,-1
0,4258,6440,1,-1,-1
0,4259,1270,1,-1,-1
0,4260,17080,1,-1,-1
0,4261,5000,1,-1,-1
0,4262,4430,-1,-1,-1
0,4263,7930,-1,-1,-1
0,4264,5800,1,-1,-1
0,4265,2230,-1,-1,-1
0,4266,3140,1,-1,-1
0,4267,1550,1,-1,-1
0,4268,3990,-1,-1,-1
0,4269,8760,1,-1,-1
0,4270,2360,-1,-1,-1
0,4271,960,1,-1,-1
0,4272,7240,1,-1,-1
0,4273,2660,1,-1,-1
0,4274,370,1,-1,-1
0,4275,6190,1,-1,-1
0,4276,1920,-1,-1,-1
0,4277,5330,-1,-1,-1
0,4278,1180,1,-1,-1
0,4279,2450,1,-1,-1
0,4280,2270,-1,-1,-1
0,4281,8830,1,-1,-1
0,4282,710,1,-1,-1
0,4283,3460,1,-1,-1
0,4284,2530,1,-1,-1
0,4285,1820,1,-1,-1
0,4286,1320,1,-1,-1
0,4287,1290,1,-1,-1
0,4288,2390,-1,-1,-1
0,4289,1590,1,-1,-1
0,4290,990,1,-1,-1
0,4291,2460,1,-1,-1
0,4292,4170,-1,-1,-1
0,4293,12850,-1,-1,-1
0,4294,740,-1,-1,-1
0,4295,3290,1,-1,-1
0,4296,3440,1,-1,-1
0,4297,750,1,-1,-1
0,4298,2430,1,-1,-1
0,4299,5710,-1,-1,-1
0,4300,1090,-1,-1,-1
0,4301,4190,-1,-1,-1
0,4302,6990,1,-1,-1
0,4303,4500,1,-1,-1
0,4304,7550,1,-1,-1
0,4305,6480,1,-1,-1
0,4306,1080,1,-1,-1
0,4307,2310,1,-1,-1
0,4308,1780,1,-1,-1
0,4309,2900,1,-1,-1
0,4310,950,1,-1,-1
0,4311,2880,1,-1,-1
0,4312,1330,-1,-1,-1
0,4313,3240,-1,-1,-1
0,4314,2440,-1,-1,-1
0,4315,2740,-1,-1,-1
0,4316,3270,1,-1,-1
0,4317,2340,1,-1,-1
0,4318,2120,-1,-1,-1
0,4319,1340,-1,-1,-1
0,4320,3430,1,-1,-1
0,4321,3870,-1,-1,-1
0,4322,5890,1,-1,-1
0,4323,2320,-1,-1,-1
0,4324,6040,1,-1,-1
0,4325,10070,1,-1,-1
0,4326,900,1,-1,-1
0,4327,8950,-1,-1,-1
0,4328,1660,1,-1,-1
0,4329,3000,1,-1,-1
0,4330,3900,-1,-1,-1
0,4331,1060,1,-1,-1
0,4332,1610,1,-1,-1
0,4333,16030,1,-1,-1
0,4334,8400,-1,-1,-1
0,4335,4220,1,-1,-1
0,4336,7050,1,-1,-1
0,4337,2820,1,-1,-1
0,4338,1150,1,-1,-1
0,4339,5420,-1,-1,-1
0,4340,1740,-1,-1,-1
0,4341,3830,-1,-1,-1
0,4342,1040,1,-1,-1
0,4343,2030,-1,-1,-1
0,4344,3770,-1,-1,-1
0,4345,2510,-1,-1,-1
0,4346,2650,1,-1,-1
0,4347,4700,1,-1,-1
0,4348,2490,1,-1,-1
0,4349,2500,-1,-1,-1
0,4350,3320,-1,-1,-1
0,4351,3830,-1,-1,-1
0,4352,2030,-1,-1,-1
0,4353,980,1,-1,-1
0,4354,2060,-1,-1,-1
0,4355,2290,-1,-1,-1
0,4356,7780,1,-1,-1
0,4357,2750,1,-1,-1
0,4358,8700,1,-1,-1
0,4359,4030,-1,-1,-1
0,4360,8200,1,-1,-1
0,4361,9990,-1,-1,-1
0,4362,3350,-1,-1,-1
0,4363,6650,1,-1,-1
0,4364,9570,1,-1,-1
0,4365,7060,1,-1,-1
0,4366,1890,-1,-1,-1
0,4367,1330,1,-1,-1
0,4368,2030,-1,-1,-1
0,4369,5910,1,-1,-1
0,4370,11150,-1,-1,-1
0,4371,7310,-1,-1,-1
0,4372,6200,1,-1,-1
0,4373,910,1,-1,-1
0,4374,1710,-1,-1,-1
0,4375,7380,-1,-1,-1
0,4376,1020,-1,-1,-1
0,4377,6190,1,-1,-1
0,4378,1190,1,-1,-1
0,4379,640,1,-1,-1
0,4380,2010,1,-1,-1
0,4381,2430,-1,-1,-1
0,4382,5110,1,-1,-1
0,4383,1130,1,-1,-1
0,4384,5280,1,-1,-1
0,4385,3540,-1,-1,-1
0,4386,3190,-1,-1,-1
0,4387,1520,-1,-1,-1
0,4388,900,1,-1,-1
0,4389,2880,1,-1,-1
0,4390,17530,1,-1,-1
0,4391,2920,1,-1,-1
0,4392,1880,-1,-1,-1
0,4393,2730,1,-1,-1
0,4394,760,1,-1,-1
0,4395,3510,1,-1,-1
0,4396,8380,1,-1,-1
0,4397,900,1,-1,-1
0,4398,3870,1,-1,-1
0,4399,5670,-1,-1,-1
0,4400,1120,-1,0,0
0,4401,9890,-1,0,0
0,4402,4830,-1,0,0
0,4403,1050,1,0,0
0,4404,2760,1,0,0
0,4405,6340,1,0,0
0,4406,3190,1,0,0
0,4407,3710,1,0,0
0,4408,1210,-1,0,0
0,4409,1890,-1,0,0
0,4410,8620,-1,0,0
0,4411,7860,1,0,0
0,4412,2120,-1,0,0
0,4413,610,-1,0,0
0,4414,10730,1,0,0
0,4415,6150,-1,0,0
0,4416,2460,-1,0,0
0,4417,5980,1,0,0
0,4418,5050,1,0,0
0,4419,1580,1,0,0
0,4420,8090,-1,0,0
0,4421,1990,-1,0,0
0,4422,7490,1,0,0
0,4423,4540,-1,0,0
0,4424,1570,1,0,0
0,4425,3740,1,0,0
0,4426,2520,1,0,0
0,4427,4700,-1,0,0
0,4428,1280,1,0,0
0,4429,2360,-1,0,0
0,4430,3020,-1,0,0
0,4431,1040,1,0,0
0,4432,2730,-1,0,0
0,4433,4530,1,0,0
0,4434,1350,-1,0,0
0,4435,4820,-1,0,0
0,4436,12000,1,0,0
0,4437,1220,-1,0,0
0,4438,1570,-1,0,0
0,4439,2220,1,0,0
0,4440,13370,1,0,0
0,4441,1640,-1,0,0
0,4442,7060,-1,0,0
0,4443,7760,1,0,0
0,4444,1240,-1,0,0
0,4445,2660,-1,0,0
0,4446,3630,1,0,0
0,4447,7340,1,0,0
0,4448,7910,-1,0,0
0,4449,3930,1,0,0
0,4450,1570,-1,0,0
0,4451,6780,1,0,0
0,4452,1940,1,0,0
0,4453,4300,1,0,0
0,4454,2070,1,0,0
0,4455,6720,-1,0,0
0,4456,7330,-1,0,0
0,4457,2440,-1,0,0
0,4458,4660,-1,0,0
0,4459,7930,-1,0,0
0,4460,3350,-1,0,0
0,4461,3170,1,0,0
0,4462,4360,1,0,0
0,4463,1550,-1,0,0
0,4464,1320,1,0,0
0,4465,6220,-1,0,0
0,4466,4710,-1,0,0
0,4467,12820,1,0,0
0,4468,9040,-1,0,0
0,4469,3150,1,0,0
0,4470,1370,-1,0,0
0,4471,7790,-1,0,0
0,4472,3310,1,0,0
0,4473,990,-1,0,0
0,4474,2260,1,0,0
0,4475,4150,1,0,0
0,4476,950,1,0,0
0,4477,2140,1,0,0
0,4478,6680,1,0,0
0,4479,9030,1,0,0
0,4480,4800,1,0,0
0,4481,1180,-1,0,0
0,4482,2210,-1,0,0
0,4483,2240,-1,0,0
0,4484,5410,-1,0,0
0,4485,2460,-1,0,0
0,4486,830,1,0,0
0,4487,1920,-1,0,0
0,4488,4160,-1,0,0
0,4489,4040,-1,0,0
0,4490,2160,1,0,0
0,4491,2310,1,0,0
0,4492,7850,-1,0,0
0,4493,12060,-1,0,0
0,4494,10120,-1,0,0
0,4495,6390,1,0,0
0,4496,1940,1,0,0
0,4497,920,1,0,0
0,4498,3550,-1,0,0
0,4499,8960,-1,0,0
0,4500,2200,-1,0,0
0,4501,3470,-1,0,0
0,4502,7520,1,0,0
0,4503,4420,-1,0,0
0,4504,10120,-1,0,0
0,4505,8980,1,0,0
0,4506,3220,1,0,0
0,4507,2240,1,0,0
0,4508,2640,1,0,0
0,4509,4650,-1,0,0
0,4510,2320,-1,0,0
0,4511,1710,1,0,0
0,4512,2520,-1,0,0
0,4513,4140,1,0,0
0,4514,2240,-1,0,0
0,4515,5490,-1,0,0
0,4516,610,1,0,0
0,4517,2070,1,0,0
0,4518,4180,1,0,0
0,4519,2790,-1,0,0
0,4520,1270,1,0,0
0,4521,3500,1,0,0
0,4522,1450,-1,0,0
0,4523,5570,-1,0,0
0,4524,770,1,0,0
0,4525,7910,-1,0,0
0,4526,2230,1,0,0
0,4527,1340,1,0,0
0,4528,11440,-1,0,0
0,4529,1800,1,0,0
0,4530,10530,1,0,0
0,4531,4040,1,0,0
0,4532,1030,1,0,0
0,4533,7550,-1,0,0
0,4534,9690,-1,0,0
0,4535,1130,1,0,0
0,4536,1880,-1,0,0
0,4537,2220,1,0,0
0,4538,2720,-1,0,0
0,4539,690,-1,0,0
0,4540,7590,-1,0,0
0,4541,3200,-1,0,0
0,4542,1550,1,0,0
0,4543,1920,1,0,0
0,4544,8540,1,0,0
0,4545,4990,1,0,0
0,4546,2490,1,0,0
0,4547,4760,1,0,0
0,4548,2360,-1,0,0
0,4549,1090,1,0,0
0,4550,2430,-1,0,0
0,4551,6450,-1,0,0
0,4552,2070,-1,0,0
0,4553,1810,1,0,0
0,4554,2940,1,0,0
0,4555,2360,-1,0,0
0,4556,1580,-1,0,0
0,4557,1560,1,0,0
0,4558,2410,-1,0,0
0,4559,8830,1,0,0
0,4560,6970,-1,0,0
0,4561,3650,-1,0,0
0,4562,4400,-1,0,0
0,4563,9720,-1,0,0
0,4564,6080,1,0,0
0,4565,1580,1,0,0
0,4566,3550,1,0,0
0,4567,1460,1,0,0
0,4568,6130,-1,0,0
0,4569,8320,1,0,0
0,4570,1330,1,0,0
0,4571,11000,1,0,0
0,4572,9760,1,0,0
0,4573,3190,-1,0,0
0,4574,1470,1,0,0
0,4575,4240,1,0,0
0,4576,8890,1,0,0
0,4577,2320,-1,0,0
0,4578,7970,1,0,0
0,4579,4520,-1,0,0
0,4580,3510,-1,0,0
0,4581,4020,1,0,0
0,4582,4930,-1,0,0
0,4583,3250,-1,0,0
0,4584,1030,-1,0,0
0,4585,3740,1,0,0
0,4586,4820,-1,0,0
0,4587,2390,-1,0,0
0,4588,5540,1,0,0
0,4589,780,1,0,0
0,4590,13610,1,0,0
0,4591,5170,1,0,0
0,4592,1070,1,0,0
0,4593,1940,-1,0,0
0,4594,4270,1,0,0
0,4595,5610,-1,0,0
0,4596,480,-1,0,0
0,4597,2210,-1,0,0
0,4598,1150,-1,0,0
0,4599,2280,1,0,0
0,4600,5470,-1,0,0
0,4601,6450,-1,0,0
0,4602,4140,-1,0,0
0,4603,12170,1,0,0
0,4604,4670,1,0,0
0,4605,7190,1,0,0
0,4606,1090,1,0,0
0,4607,9510,-1,0,0
0,4608,1610,1,0,0
0,4609,1190,-1,0,0
0,4610,1180,1,0,0
0,4611,8220,1,0,0
0,4612,3730,-1,0,0
0,4613,5800,1,0,0
0,4614,2120,1,0,0
0,4615,11690,1,0,0
0,4616,2080,1,0,0
0,4617,1570,1,0,0
0,4618,770,1,0,0
0,4619,1380,1,0,0
0,4620,12420,-1,0,0
0,4621,1200,1,0,0
0,4622,6060,-1,0,0
0,4623,2360,1,0,0
0,4624,8450,1,0,0
0,4625,7310,-1,0,0
0,4626,5740,-1,0,0
0,4627,2670,1,0,0
0,4628,2070,1,0,0
0,4629,5590,-1,0,0
0,4630,8820,-1,0,0
0,4631,860,-1,0,0
0,4632,6040,-1,0,0
0,4633,4910,1,0,0
0,4634,5990,-1,0,0
0,4635,840,-1,0,0
0,4636,5430,-1,0,0
0,4637,7580,-1,0,0
0,4638,1920,1,0,0
0,4639,1520,1,0,0
0,4640,800,-1,0,0
0,4641,1600,1,0,0
0,4642,2570,-1,0,0
0,4643,4600,-1,0,0
0,4644,5780,-1,0,0
0,4645,8540,1,0,0
0,4646,3400,1,0,0
0,4647,3370,1,0,0
0,4648,6510,1,0,0
0,4649,9870,1,0,0
0,4650,860,1,0,0
0,4651,5890,-1,0,0
0,4652,2970,1,0,0
0,4653,6750,-1,0,0
0,4654,5720,-1,0,0
0,4655,950,1,0,0
0,4656,1630,1,0,0
0,4657,7630,1,0,0
0,4658,8340,1,0,0
0,4659,10360,1,0,0
0,4660,11330,1,0,0
0,4661,1540,1,0,0
0,4662,4430,1,0,0
0,4663,3850,-1,0,0
0,4664,6170,-1,0,0
0,4665,1270,-1,0,0
0,4666,8510,1,0,0
0,4667,1720,-1,0,0
0,4668,810,1,0,0
0,4669,2510,1,0,0
0,4670,8310,1,0,0
0,4671,2170,1,0,0
0,4672,9640,-1,0,0
0,4673,530,1,0,0
0,4674,2400,-1,0,0
0,4675,1360,-1,0,0
0,4676,3150,-1,0,0
0,4677,2820,-1,0,0
0,4678,5640,-1,0,0
0,4679,2560,1,0,0
0,4680,4600,-1,0,0
0,4681,2120,-1,0,0
0,4682,2650,-1,0,0
0,4683,4290,-1,0,0
0,4684,1720,1,0,0
0,4685,2580,1,0,0
0,4686,5000,-1,0,0
0,4687,910,-1,0,0
0,4688,2180,1,0,0
0,4689,3050,1,0,0
0,4690,13490,-1,0,0
0,4691,710,1,0,0
0,4692,1480,-1,0,0
0,4693,3940,-1,0,0
0,4694,3620,1,0,0
0,4695,4250,-1,0,0
0,4696,2950,1,0,0
0,4697,1950,1,0,0
0,4698,11510,-1,0,0
0,4699,2760,-1,0,0
0,4700,7890,1,0,0
0,4701,5790,1,0,0
0,4702,5130,-1,0,0
0,4703,5710,-1,0,0
0,4704,2400,1,0,0
0,4705,4800,-1,0,0
0,4706,4940,-1,0,0
0,4707,2920,-1,0,0
0,4708,3060,-1,0,0
0,4709,1310,1,0,0
0,4710,8750,1,0,0
0,4711,1630,-1,0,0
0,4712,12160,-1,0,0
0,4713,1980,-1,0,0
0,4714,1670,-1,0,0
0,4715,4490,-1,0,0
0,4716,5880,1,0,0
0,4717,1750,-1,0,0
0,4718,4300,1,0,0
0,4719,3370,-1,0,0
0,4720,4350,-1,0,0
0,4721,4760,1,0,0
0,4722,9570,1,0,0
0,4723,1480,-1,0,0
0,4724,2620,1,0,0
0,4725,6980,1,0,0
0,4726,3690,1,0,0
0,4727,2810,-1,0,0
0,4728,1320,1,0,0
0,4729,2650,-1,0,0
0,4730,2300,1,0,0
0,4731,1820,1,0,0
0,4732,11720,1,0,0
0,4733,6770,1,0,0
0,4734,1030,1,0,0
0,4735,6810,-1,0,0
0,4736,2320,-1,0,0
0,4737,4470,1,0,0
0,4738,14900,-1,0,0
0,4739,3280,-1,0,0
0,4740,2440,1,0,0
0,4741,4340,1,0,0
0,4742,8910,-1,0,0
0,4743,6220,1,0,0
0,4744,6030,1,0,0
0,4745,1550,-1,0,0
0,4746,2130,-1,0,0
0,4747,1280,-1,0,0
0,4748,1340,1,0,0
0,4749,1060,-1,0,0
0,4750,3330,1,0,0
0,4751,12230,-1,0,0
0,4752,1740,-1,0,0
0,4753,2210,1,0,0
0,4754,3270,-1,0,0
0,4755,1960,1,0,0
0,4756,1380,1,0,0
0,4757,3620,-1,0,0
0,4758,7010,1,0,0
0,4759,14320,-1,0,0
0,4760,4400,1,0,0
0,4761,16890,1,0,0
0,4762,10230,1,0,0
0,4763,1130,1,0,0
0,4764,8780,1,0,0
0,4765,1460,1,0,0
0,4766,3520,-1,0,0
0,4767,8060,-1,0,0
0,4768,8850,-1,0,0
0,4769,3300,1,0,0
0,4770,3840,1,0,0
0,4771,2920,1,0,0
0,4772,620,-1,0,0
0,4773,10740,1,0,0
0,4774,3180,1,0,0
0,4775,4400,-1,0,0
0,4776,4350,-1,0,0
0,4777,3360,1,0,0
0,4778,5060,-1,0,0
0,4779,5380,1,0,0
0,4780,1060,1,0,0
0,4781,9700,1,0,0
0,4782,6140,-1,0,0
0,4783,730,-1,0,0
0,4784,2900,1,0,0
0,4785,4470,1,0,0
0,4786,2130,-1,0,0
0,4787,3940,1,0,0
0,4788,5770,-1,0,0
0,4789,2930,-1,0,0
0,4790,570,-1,0,0
0,4791,4350,-1,0,0
0,4792,1760,1,0,0
0,4793,12370,-1,0,0
0,4794,4720,1,0,0
0,4795,2940,1,0,0
0,4796,4420,1,0,0
0,4797,2510,-1,0,0
0,4798,4430,-1,0,0
0,4799,3030,1,0,0
0,4800,770,1,-1,0
0,4801,3370,-1,-1,0
0,4802,4620,-1,-1,0
0,4803,1430,1,-1,0
0,4804,4240,-1,-1,0
0,4805,4480,1,-1,0
0,4806,2790,1,-1,0
0,4807,990,-1,-1,0
0,4808,4030,-1,-1,0
0,4809,6220,1,-1,0
0,4810,650,1,-1,0
0,4811,1260,1,-1,0
0,4812,380,1,-1,0
0,4813,6320,1,-1,0
0,4814,860,1,-1,0
0,4815,1260,1,-1,0
0,4816,6070,-1,-1,0
0,4817,3370,1,-1,0
0,4818,2190,1,-1,0
0,4819,3370,-1,-1,0
0,4820,4940,1,-1,0
0,4821,840,1,-1,0
0,4822,810,-1,-1,0
0,4823,4590,1,-1,0
0,4824,5260,1,-1,0
0,4825,2140,1,-1,0
0,4826,4880,-1,-1,0
0,4827,1280,-1,-1,0
0,4828,3500,1,-1,0
0,4829,2910,1,-1,0
0,4830,6460,-1,-1,0
0,4831,2490,1,-1,0
0,4832,3530,1,-1,0
0,4833,870,-1,-1,0
0,4834,1930,-1,-1,0
0,4835,3040,1,-1,0
0,4836,2060,1,-1,0
0,4837,3420,1,-1,0
0,4838,2220,-1,-1,0
0,4839,11810,-1,-1,0
0,4840,890,1,-1,0
0,4841,7470,1,-1,0
0,4842,1150,1,-1,0
0,4843,3560,1,-1,0
0,4844,1430,-1,-1,0
0,4845,13140,1,-1,0
0,4846,2750,1,-1,0
0,4847,7300,-1,-1,0
0,4848,3660,-1,-1,0
0,4849,11050,1,-1,0
0,4850,5640,1,-1,0
0,4851,930,1,-1,0
0,4852,2370,1,-1,0
0,4853,5240,1,-1,0
0,4854,5230,1,-1,0
0,4855,2680,-1,-1,0
0,4856,4330,1,-1,0
0,4857,1440,1,-1,0
0,4858,370,1,-1,0
0,4859,5430,1,-1,0
0,4860,6520,1,-1,0
0,4861,1460,1,-1,0
0,4862,2610,1,-1,0
0,4863,5900,1,-1,0
0,4864,2320,-1,-1,0
0,4865,2290,1,-1,0
0,4866,13310,1,-1,0
0,4867,660,1,-1,0
0,4868,1460,1,-1,0
0,4869,3460,1,-1,0
0,4870,1810,-1,-1,0
0,4871,3150,-1,-1,0
0,4872,820,1,-1,0
0,4873,2300,-1,-1,0
0,4874,6210,1,-1,0
0,4875,440,1,-1,0
0,4876,3000,1,-1,0
0,4877,1760,1,-1,0
0,4878,8090,1,-1,0
0,4879,2250,-1,-1,0
0,4880,11780,1,-1,0
0,4881,9600,1,-1,0
0,4882,3620,1,-1,0
0,4883,2870,-1,-1,0
0,4884,5220,1,-1,0
0,4885,4190,-1,-1,0
0,4886,1590,-1,-1,0
0,4887,3080,1,-1,0
0,4888,720,1,-1,0
0,4889,2020,-1,-1,0
0,4890,7210,-1,-1,0
0,4891,6440,1,-1,0
0,4892,3090,1,-1,0
0,4893,2660,1,-1,0
0,4894,1410,-1,-1,0
0,4895,2080,1,-1,0
0,4896,4730,-1,-1,0
0,4897,1360,1,-1,0
0,4898,2040,-1,-1,0
0,4899,650,1,-1,0
0,4900,2220,1,-1,0
0,4901,2110,-1,-1,0
0,4902,730,1,-1,0
0,4903,5140,-1,-1,0
0,4904,1750,-1,-1,0
0,4905,11140,-1,-1,0
0,4906,1080,1,-1,0
0,4907,4560,1,-1,0
0,4908,3500,-1,-1,0
0,4909,1290,1,-1,0
0,4910,7350,-1,-1,0
0,4911,1920,1,-1,0
0,4912,1730,-1,-1,0
0,4913,320,1,-1,0
0,4914,2840,1,-1,0
0,4915,5420,-1,-1,0
0,4916,20160,1,-1,0
0,4917,5910,1,-1,0
0,4918,2390,1,-1,0
0,4919,1060,1,-1,0
0,4920,390,1,-1,0
0,4921,3090,1,-1,0
0,4922,2210,1,-1,0
0,4923,1700,1,-1,0
0,4924,13780,1,-1,0
0,4925,8760,-1,-1,0
0,4926,6230,-1,-1,0
0,4927,2380,1,-1,0
0,4928,540,1,-1,0
0,4929,10690,1,-1,0
0,4930,1610,-1,-1,0
0,4931,1190,1,-1,0
0,4932,1720,-1,-1,0
0,4933,5160,-1,-1,0
0,4934,8150,-1,-1,0
0,4935,1190,-1,-1,0
0,4936,1850,1,-1,0
0,4937,850,1,-1,0
0,4938,5860,-1,-1,0
0,4939,1700,-1,-1,0
0,4940,1220,1,-1,0
0,4941,1920,1,-1,0
0,4942,19500,-1,-1,0
0,4943,4620,1,-1,0
0,4944,690,1,-1,0
0,4945,5290,1,-1,0
0,4946,9280,1,-1,0
0,4947,2140,-1,-1,0
0,4948,2180,1,-1,0
0,4949,1240,-1,-1,0
0,4950,1270,-1,-1,0
0,4951,660,-1,-1,0
0,4952,5430,1,-1,0
0,4953,4950,1,-1,0
0,4954,5500,-1,-1,0
0,4955,7500,-1,-1,0
0,4956,2920,-1,-1,0
0,4957,3350,-1,-1,0
0,4958,1610,1,-1,0
0,4959,1290,-1,-1,0
0,4960,2780,1,-1,0
0,4961,2450,-1,-1,0
0,4962,2190,-1,-1,0
0,4963,5970,-1,-1,0
0,4964,2310,-1,-1,0
0,4965,3490,1,-1,0
0,4966,4760,1,-1,0
0,4967,2900,1,-1,0
0,4968,4860,1,-1,0
0,4969,7270,-1,-1,0
0,4970,4080,1,-1,0
0,4971,3440,-1,-1,0
0,4972,6520,-1,-1,0
0,4973,2160,1,-1,0
0,4974,680,1,-1,0
0,4975,1260,1,-1,0
0,4976,2000,1,-1,0
0,4977,1760,-1,-1,0
0,4978,8080,-1,-1,0
0,4979,1200,1,-1,0
0,4980,3640,1,-1,0
0,4981,1890,1,-1,0
0,4982,3730,-1,-1,0
0,4983,1540,1,-1,0
0,4984,1360,1,-1,0
0,4985,460,-1,-1,0
0,4986,1500,1,-1,0
0,4987,4600,1,-1,0
0,4988,9900,-1,-1,0
0,4989,2520,1,-1,0
0,4990,780,1,-1,0
0,4991,5880,1,-1,0
0,4992,8880,-1,-1,0
0,4993,1590,1,-1,0
0,4994,1930,1,-1,0
0,4995,5550,1,-1,0
0,4996,2840,1,-1,0
0,4997,15010,1,-1,0
0,4998,940,1,-1,0
0,4999,1660,-1,-1,0
0,5000,11820,1,-1,0
0,5001,2770,1,-1,0
0,5002,860,1,-1,0
0,5003,910,1,-1,0
0,5004,1420,1,-1,0
0,5005,1220,1,-1,0
0,5006,4130,-1,-1,0
0,5007,1610,1,-1,0
0,5008,4290,-1,-1,0
0,5009,990,1,-1,0
0,5010,1580,1,-1,0
0,5011,1340,1,-1,0
0,5012,1040,1,-1,0
0,5013,3180,-1,-1,0
0,5014,910,-1,-1,0
0,5015,1430,1,-1,0
0,5016,6010,1,-1,0
0,5017,6110,1,-1,0
0,5018,1280,1,-1,0
0,5019,4360,-1,-1,0
0,5020,8140,1,-1,0
0,5021,1750,-1,-1,0
0,5022,270,1,-1,0
0,5023,2410,-1,-1,0
0,5024,2080,1,-1,0
0,5025,1190,1,-1,0
0,5026,7270,-1,-1,0
0,5027,4320,1,-1,0
0,5028,2670,1,-1,0
0,5029,8840,1,-1,0
0,5030,3020,1,-1,0
0,5031,4600,1,-1,0
0,5032,700,-1,-1,0
0,5033,4260,1,-1,0
0,5034,3310,-1,-1,0
0,5035,5120,-1,-1,0
0,5036,1980,1,-1,0
0,5037,930,1,-1,0
0,5038,1530,1,-1,0
0,5039,430,1,-1,0
0,5040,2620,-1,-1,0
0,5041,1050,-1,-1,0
0,5042,1920,-1,-1,0
0,5043,7360,-1,-1,0
0,5044,3260,1,-1,0
0,5045,2260,1,-1,0
0,5046,3380,1,-1,0
0,5047,6680,1,-1,0
0,5048,690,1,-1,0
0,5049,3060,-1,-1,0
0,5050,3560,1,-1,0
0,5051,5460,1,-1,0
0,5052,2370,-1,-1,0
0,5053,3060,-1,-1,0
0,5054,980,1,-1,0
0,5055,3800,1,-1,0
0,5056,7800,-1,-1,0
0,5057,3040,1,-1,0
0,5058,4850,1,-1,0
0,5059,730,-1,-1,0
0,5060,5060,1,-1,0
0,5061,700,1,-1,0
0,5062,5920,-1,-1,0
0,5063,4760,-1,-1,0
0,5064,2090,-1,-1,0
0,5065,2710,1,-1,0
0,5066,4060,1,-1,0
0,5067,7220,-1,-1,0
0,5068,4840,1,-1,0
0,5069,3630,1,-1,0
0,5070,1190,1,-1,0
0,5071,2200,1,-1,0
0,5072,2180,-1,-1,0
0,5073,5770,1,-1,0
0,5074,7370,-1,-1,0
0,5075,5030,1,-1,0
0,5076,3630,-1,-1,0
0,5077,1550,1,-1,0
0,5078,1960,-1,-1,0
0,5079,1370,1,-1,0
0,5080,1180,1,-1,0
0,5081,820,1,-1,0
0,5082,1570,1,-1,0
0,5083,3600,1,-1,0
0,5084,2670,1,-1,0
0,5085,1470,1,-1,0
0,5086,1690,-1,-1,0
0,5087,4080,1,-1,0
0,5088,2770,1,-1,0
0,5089,1330,1,-1,0
0,5090,5810,1,-1,0
0,5091,6710,1,-1,0
0,5092,7460,1,-1,0
0,5093,4800,1,-1,0
0,5094,1820,-1,-1,0
0,5095,4030,-1,-1,0
0,5096,2300,1,-1,0
0,5097,3520,1,-1,0
0,5098,1670,1,-1,0
0,5099,1150,1,-1,0
0,5100,3460,1,-1,0
0,5101,1530,1,-1,0
0,5102,1270,1,-1,0
0,5103,7730,1,-1,0
0,5104,7080,1,-1,0
0,5105,3220,1,-1,0
0,5106,550,-1,-1,0
0,5107,4890,1,-1,0
0,5108,1720,-1,-1,0
0,5109,3960,1,-1,0
0,5110,6960,1,-1,0
0,5111,2000,1,-1,0
0,5112,3530,1,-1,0
0,5113,3920,-1,-1,0
0,5114,2010,-1,-1,0
0,5115,2920,1,-1,0
0,5116,2300,1,-1,0
0,5117,910,-1,-1,0
0,5118,12710,1,-1,0
0,5119,1760,1,-1,0
0,5120,5010,1,-1,0
0,5121,7760,1,-1,0
0,5122,5050,1,-1,0
0,5123,2140,1,-1,0
0,5124,6800,-1,-1,0
0,5125,2630,1,-1,0
0,5126,1770,-1,-1,0
0,5127,3150,1,-1,0
0,5128,550,1,-1,0
0,5129,1500,-1,-1,0
0,5130,3080,1,-1,0
0,5131,2970,1,-1,0
0,5132,3260,-1,-1,0
0,5133,3900,1,-1,0
0,5134,2160,1,-1,0
0,5135,800,1,-1,0
0,5136,1990,-1,-1,0
0,5137,3490,1,-1,0
0,5138,660,1,-1,0
0,5139,590,1,-1,0
0,5140,3360,1,-1,0
0,5141,570,1,-1,0
0,5142,5570,-1,-1,0
0,5143,1750,-1,-1,0
0,5144,3080,-1,-1,0
0,5145,1600,1,-1,0
0,5146,4320,1,-1,0
0,5147,2570,-1,-1,0
0,5148,1570,-1,-1,0
0,5149,3140,1,-1,0
0,5150,8210,-1,-1,0
0,5151,1270,-1,-1,0
0,5152,4710,-1,-1,0
0,5153,1720,1,-1,0
0,5154,530,1,-1,0
0,5155,2190,1,-1,0
0,5156,8980,-1,-1,0
0,5157,2230,1,-1,0
0,5158,10630,1,-1,0
0,5159,1410,1,-1,0
0,5160,3020,-1,-1,0
0,5161,1610,1,-1,0
0,5162,5430,1,-1,0
0,5163,6040,-1,-1,0
0,5164,2170,-1,-1,0
0,5165,2220,-1,-1,0
0,5166,990,1,-1,0
0,5167,4710,-1,-1,0
0,5168,1960,-1,-1,0
0,5169,12050,1,-1,0
0,5170,4110,-1,-1,0
0,5171,2220,1,-1,0
0,5172,7400,1,-1,0
0,5173,4670,1,-1,0
0,5174,4370,1,-1,0
0,5175,2370,-1,-1,0
0,5176,2810,-1,-1,0
0,5177,950,1,-1,0
0,5178,7520,1,-1,0
0,5179,1480,-1,-1,0
0,5180,11100,-1,-1,0
0,5181,1690,-1,-1,0
0,5182,1910,1,-1,0
0,5183,4810,-1,-1,0
0,5184,1920,1,-1,0
0,5185,5270,1,-1,0
0,5186,6390,-1,-1,0
0,5187,2930,1,-1,0
0,5188,3400,1,-1,0
0,5189,2440,1,-1,0
0,5190,3250,1,-1,0
0,5191,1650,-1,-1,0
0,5192,2160,1,-1,0
0,5193,13930,1,-1,0
0,5194,1260,1,-1,0
0,5195,660,1,-1,0
0,5196,3540,-1,-1,0
0,5197,2020,-1,-1,0
0,5198,1780,1,-1,0
0,5199,810,1,-1,0
0,5200,1330,1,-1,-1
0,5201,1330,-1,-1,-1
0,5202,5380,-1,-1,-1
0,5203,1060,1,-1,-1
0,5204,810,1,-1,-1
0,5205,3470,1,-1,-1
0,5206,1540,-1,-1,-1
0,5207,2110,-1,-1,-1
0,5208,4250,-1,-1,-1
0,5209,20640,-1,-1,-1
0,5210,2330,-1,-1,-1
0,5211,5500,1,-1,-1
0,5212,2210,1,-1,-1
0,5213,1410,1,-1,-1
0,5214,1590,-1,-1,-1
0,5215,700,-1,-1,-1
