,index,Part,TrialN,PairID,LValue,RValue,ChosenITM,ChoiceRT,Conf,ConfRT,BlockCond,tDDT,lIA_DT,rIA_DT,tGSF,lastFixat,TotVal,ValCh,ValUnCh,Correct,DV,zDV,absDV,zAbsDV,zConf,zChoiceRT,zTotVal,zValCh,zValUnCh,zGSF,zDDT,absDDT,zValR,zValL,ConfSplit,GSFMedSplit,DDTMedSplit
0,1,1.0,1,49,110,131,0,4261.735,74,1584.9660000000001,LESS,-704,2114,1410,0,0,97,47,50,1,21.0,1.9685577674164243,21.0,2.095290887308735,0.38883333852157215,1.2284490278498308,-1.2565367313548828,-1.2875506099951286,-1.170500554541026,-1.430827029037762,-0.4231320363448228,0.4231320363448228,1.9898509427197442,1.170500554541026,1,0,1
1,2,1.0,2,13,47,50,1,3559.258,54,1864.3870000000002,LESS,8,1332,1340,0,0,94,50,44,0,3.0,0.28122253820234633,3.0,-1.0476454436543674,-0.6400531140162148,0.6552951027993201,-1.3163718138003533,-1.170500554541026,-1.4046006654492311,-1.430827029037762,0.913173174910506,0.913173174910506,-1.170500554541026,-1.2875506099951286,0,0,1
2,3,1.0,3,16,50,44,1,3754.4640000000004,64,3778.8070000000002,LESS,38,1272,1310,0,0,107,57,50,0,-6.0,-0.5624450764046927,6.0,-0.5238227218271837,-0.1256098877473213,0.8145644953821521,-1.0570864565366473,-0.8973837584814532,-1.170500554541026,-1.430827029037762,0.9694781697667697,0.9694781697667697,-1.4046006654492311,-1.170500554541026,1,1,0
3,4,1.0,4,7,57,50,0,2431.751,84,3064.179,LESS,-587,1261,674,0,0,92,42,50,1,-7.0,-0.6561859224721414,7.0,-0.34921514788478913,0.9032765647904656,-0.2646425785367606,-1.3562618687640005,-1.4826340357519663,-1.170500554541026,-1.430827029037762,-0.20354255640539382,0.20354255640539382,-1.170500554541026,-0.8973837584814532,1,1,1
4,5,1.0,5,18,42,50,0,2199.342,44,2850.845,LESS,-749,1291,542,0,0,218,108,110,1,8.0,0.7499267685395902,8.0,-0.17460757394239457,-1.1544963402851083,-0.45426605456097807,1.156811593945765,1.092467184238291,1.170500554541026,-1.430827029037762,-0.5075895286292186,0.5075895286292186,-1.170500554541026,-1.4826340357519663,0,1,0
5,6,1.0,6,51,108,110,0,3269.922,44,3745.039,LESS,-697,1679,982,0,0,158,78,80,1,2.0,0.18748169213489754,2.0,-1.2222530175967619,-1.1544963402851083,0.41922464916394925,-0.03989005496364707,-0.07803337030273506,0.0,-1.430827029037762,-0.4099942042116946,0.4099942042116946,1.170500554541026,1.092467184238291,1,1,1
6,7,1.0,7,31,78,80,0,6606.698,74,2425.516,LESS,-1113,3209,2096,0,0,202,110,92,0,2.0,0.18748169213489754,2.0,-1.2222530175967619,0.38883333852157215,3.1417141561717847,0.8376911542365885,1.170500554541026,0.4682002218164104,-1.430827029037762,-1.1907567995518868,1.1907567995518868,0.0,-0.07803337030273506,0,0,0
7,8,1.0,8,58,110,92,1,3642.1459999999997,74,3030.0009999999997,LESS,-654,1772,1118,0,0,98,50,48,0,-18.0,-1.687335229214078,18.0,1.571468165481551,0.38883333852157215,0.7229237689899384,-1.2365917038730592,-1.170500554541026,-1.248533924843761,-1.430827029037762,-0.32929037825104973,0.32929037825104973,0.4682002218164104,1.170500554541026,0,1,0
8,9,1.0,9,12,50,48,1,5213.48,54,2229.314,LESS,59,1984,2043,0,0,211,110,101,0,-2.0,-0.18748169213489754,2.0,-1.2222530175967619,-0.6400531140162148,2.004981757600696,1.0171964015730004,1.170500554541026,0.8193503881787182,-1.430827029037762,1.0088916661661544,1.0088916661661544,-1.248533924843761,-1.170500554541026,0,0,0
9,10,1.0,10,54,110,101,1,5511.334,34,1727.761,LESS,561,2000,2561,0,0,96,46,50,1,-9.0,-0.843667614607039,9.0,0.0,-1.6689395665540017,2.2480020830946192,-1.2764817588367063,-1.3265672951464962,-1.170500554541026,-1.430827029037762,1.9510619134276361,1.9510619134276361,0.8193503881787182,1.170500554541026,0,1,0
10,11,1.0,11,14,46,50,0,2007.957,74,1249.337,LESS,-387,949,562,0,0,163,80,83,1,4.0,0.3749633842697951,4.0,-0.8730378697119728,0.38883333852157215,-0.6104178772481151,0.05983508244547061,0.0,0.1170500554541026,-1.430827029037762,0.17182407596969854,0.17182407596969854,-1.170500554541026,-1.3265672951464962,0,0,1
11,12,1.0,12,22,80,83,1,3124.5209999999997,64,1956.342,LESS,-725,1616,891,0,0,106,50,56,1,3.0,0.28122253820234633,3.0,-1.0476454436543674,-0.1256098877473213,0.3005913645777361,-1.077031484018471,-1.170500554541026,-0.9364004436328208,-1.430827029037762,-0.4625455327442075,0.4625455327442075,0.1170500554541026,0.0,1,0,0
12,13,1.0,13,6,50,56,0,1978.076,74,3940.974,LESS,-330,888,558,0,0,97,50,47,0,6.0,0.5624450764046927,6.0,-0.5238227218271837,0.38883333852157215,-0.6347979102377139,-1.2565367313548828,-1.170500554541026,-1.2875506099951286,-1.430827029037762,0.27880356619659985,0.27880356619659985,-0.9364004436328208,-1.170500554541026,1,0,0
13,14,1.0,14,13,50,47,1,2508.548,34,2032.9779999999998,LESS,-481,1278,797,0,0,234,110,124,1,-3.0,-0.28122253820234633,3.0,-1.0476454436543674,-1.6689395665540017,-0.20198358474464523,1.4759320336549415,1.170500554541026,1.7167341466601715,-1.430827029037762,-0.00459824124659486,0.00459824124659486,-1.2875506099951286,-1.170500554541026,1,1,0
14,15,1.0,15,46,110,124,1,3907.2459999999996,4,1461.971,LESS,127,1460,1587,0,0,171,91,80,0,14.0,1.3123718449442827,14.0,0.8730378697119728,-3.212269245360682,0.9392199687671415,0.21939530230005888,0.4291835366650429,0.0,-1.430827029037762,1.1365163211736857,1.1365163211736857,1.7167341466601715,1.170500554541026,0,1,0
15,16,1.0,16,27,91,80,1,3482.062,64,2540.283,LESS,-575,1782,1207,0,0,144,64,80,1,-11.0,-1.0311493067419364,11.0,0.34921514788478913,-0.1256098877473213,0.5923105632368872,-0.3191204397091766,-0.6242669624218805,0.0,-1.430827029037762,-0.18102055846288825,0.18102055846288825,0.0,0.4291835366650429,0,0,0
16,17,1.0,17,40,64,80,0,1823.3770000000002,74,2167.7470000000003,LESS,-357,863,506,0,0,163,83,80,0,16.0,1.4998535370791803,16.0,1.2222530175967619,0.38883333852157215,-0.7610174719477614,0.05983508244547061,0.1170500554541026,0.0,-1.430827029037762,0.2281290708259624,0.2281290708259624,0.0,-0.6242669624218805,0,0,0
17,18,1.0,18,22,83,80,0,5111.944,64,1821.922,LESS,-1861,3023,1162,0,0,211,101,110,1,-3.0,-0.28122253820234633,3.0,-1.0476454436543674,-0.1256098877473213,1.9221381101447246,1.0171964015730004,0.8193503881787182,1.170500554541026,-1.430827029037762,-2.5946280046347323,2.5946280046347323,0.0,0.1170500554541026,1,0,1
18,19,1.0,19,54,101,110,0,4920.474,54,3188.875,LESS,-1658,2932,1274,0,0,106,56,50,0,9.0,0.843667614607039,9.0,0.0,-0.6400531140162148,1.7659169356017552,-1.077031484018471,-0.9364004436328208,-1.170500554541026,-1.430827029037762,-2.2136308727740133,2.2136308727740133,1.170500554541026,0.8193503881787182,1,0,1
19,20,1.0,20,6,56,50,0,1869.935,54,1348.0910000000001,LESS,-277,817,540,0,0,92,50,42,0,-6.0,-0.5624450764046927,6.0,-0.5238227218271837,-0.6400531140162148,-0.723030604843925,-1.3562618687640005,-1.170500554541026,-1.4826340357519663,-1.430827029037762,0.37827572377599933,0.37827572377599933,-1.170500554541026,-0.9364004436328208,1,0,1
20,21,1.0,21,18,50,42,0,1705.8110000000001,84,1299.3139999999999,LESS,-329,817,488,0,0,227,110,117,1,-8.0,-0.7499267685395902,8.0,-0.17460757394239457,0.9032765647904656,-0.8569400635094614,1.3363168412821769,1.170500554541026,1.4436173506005987,-1.430827029037762,0.28068039935847533,0.28068039935847533,-1.4826340357519663,-1.170500554541026,1,1,0
21,22,1.0,22,43,110,117,0,3083.54,54,2248.677,LESS,-1229,1847,618,0,0,157,77,80,1,7.0,0.6561859224721414,7.0,-0.34921514788478913,-0.6400531140162148,0.2671547951206648,-0.05983508244547061,-0.1170500554541026,0.0,-1.430827029037762,-1.4084694463294403,1.4084694463294403,1.4436173506005987,1.170500554541026,1,1,0
22,23,1.0,23,32,77,80,0,2474.714,24,1261.502,LESS,-545,1241,696,0,0,171,80,91,1,3.0,0.28122253820234633,3.0,-1.0476454436543674,-2.1833827928228953,-0.22958888698252475,0.21939530230005888,0.0,0.4291835366650429,-1.430827029037762,-0.12471556360662442,0.12471556360662442,0.0,-0.1170500554541026,0,1,1
23,24,1.0,24,27,80,91,0,2272.349,74,1373.872,LESS,-324,1132,808,0,0,94,44,50,1,11.0,1.0311493067419364,11.0,0.34921514788478913,0.38883333852157215,-0.3946993376347831,-1.3163718138003533,-1.4046006654492311,-1.170500554541026,-1.430827029037762,0.2900645651678526,0.2900645651678526,0.4291835366650429,0.0,0,0,1
24,25,1.0,25,16,44,50,0,3790.48,64,2175.9139999999998,LESS,-227,1563,1336,0,0,107,50,57,1,6.0,0.5624450764046927,6.0,-0.5238227218271837,-0.1256098877473213,0.8439501005544485,-1.0570864565366473,-1.170500554541026,-0.8973837584814532,-1.430827029037762,0.4721173818697724,0.4721173818697724,-1.170500554541026,-1.4046006654492311,1,0,1
25,26,1.0,26,7,50,57,0,2046.0620000000001,64,1804.283,LESS,-398,954,556,0,0,96,50,46,0,7.0,0.6561859224721414,7.0,-0.34921514788478913,-0.1256098877473213,-0.5793278482307244,-1.2764817588367063,-1.170500554541026,-1.3265672951464962,-1.430827029037762,0.15117891118906845,0.15117891118906845,-0.8973837584814532,-1.170500554541026,1,1,0
26,27,1.0,27,14,50,46,1,3822.2509999999997,64,1246.1789999999999,LESS,171,1538,1709,0,0,218,110,108,0,-4.0,-0.3749633842697951,4.0,-0.8730378697119728,-0.1256098877473213,0.8698721924560765,1.156811593945765,1.170500554541026,1.092467184238291,-1.430827029037762,1.2190969802962062,1.2190969802962062,-1.3265672951464962,-1.170500554541026,1,1,0
27,28,1.0,28,51,110,108,0,3347.54,64,1979.1660000000002,LESS,-850,1790,940,0,0,243,133,110,0,-2.0,-0.18748169213489754,2.0,-1.2222530175967619,-0.1256098877473213,0.4825535002929834,1.6554372809913533,2.0678843130224793,1.170500554541026,-1.430827029037762,-0.6971496779786402,0.6971496779786402,1.092467184238291,1.170500554541026,1,1,1
28,29,1.0,29,50,133,110,1,2252.245,54,2859.177,LESS,-131,978,847,0,0,241,131,110,0,-23.0,-2.1560394595513217,23.0,2.4445060351935237,-0.6400531140162148,-0.41110227539532984,1.6155472260277064,1.9898509427197442,1.170500554541026,-1.430827029037762,0.6522933654098167,0.6522933654098167,1.170500554541026,2.0678843130224793,1,0,1
29,30,1.0,30,49,131,110,1,2083.424,74,1310.553,LESS,-114,964,850,0,0,236,126,110,0,-21.0,-1.9685577674164243,21.0,2.095290887308735,0.38883333852157215,-0.5488440360237237,1.5158220886185887,1.7947675169629065,1.170500554541026,-1.430827029037762,0.6841995291616996,0.6841995291616996,1.170500554541026,1.9898509427197442,1,0,1
30,31,1.0,31,47,126,110,1,4155.502,44,1021.7330000000001,LESS,-1047,2120,1073,0,0,243,110,133,1,-16.0,-1.4998535370791803,16.0,1.2222530175967619,-1.1544963402851083,1.141773078431002,1.6554372809913533,1.170500554541026,2.0678843130224793,-1.430827029037762,-1.0668858108681063,1.0668858108681063,1.170500554541026,1.7947675169629065,1,0,1
31,32,1.0,32,50,110,133,0,2550.939,84,2476.876,LESS,-641,1317,676,0,0,236,110,126,1,23.0,2.1560394595513217,23.0,2.4445060351935237,0.9032765647904656,-0.1673965903849491,1.5158220886185887,1.170500554541026,1.7947675169629065,-1.430827029037762,-0.3048915471466687,0.3048915471466687,2.0678843130224793,1.170500554541026,1,0,1
32,33,1.0,33,47,110,126,0,5814.5509999999995,64,1875.655,LESS,-2814,3952,1138,0,0,98,48,50,1,16.0,1.4998535370791803,16.0,1.2222530175967619,-0.1256098877473213,2.495398102739449,-1.2365917038730592,-1.248533924843761,-1.170500554541026,-1.430827029037762,-4.383250007902046,4.383250007902046,1.7947675169629065,1.170500554541026,1,0,1
33,34,1.0,34,12,48,50,0,1428.2879999999998,94,3195.264,LESS,279,430,709,0,0,157,80,77,0,2.0,0.18748169213489754,2.0,-1.2222530175967619,1.417719791059359,-1.0833722409925577,-0.05983508244547061,0.0,-0.1170500554541026,-1.430827029037762,1.421794961778756,1.421794961778756,-1.170500554541026,-1.248533924843761,0,1,1
34,35,1.0,35,32,80,77,0,1743.991,84,714.693,LESS,-381,829,448,0,0,227,117,110,0,-3.0,-0.28122253820234633,3.0,-1.0476454436543674,0.9032765647904656,-0.8257888416781011,1.3363168412821769,1.4436173506005987,1.170500554541026,-1.430827029037762,0.1830850749409513,0.1830850749409513,-0.1170500554541026,0.0,1,0,0
35,36,1.0,36,43,117,110,1,2329.644,34,2402.5229999999997,LESS,-271,1094,823,0,0,144,80,64,0,-7.0,-0.6561859224721414,7.0,-0.34921514788478913,-1.6689395665540017,-0.34795210728308645,-0.3191204397091766,0.0,-0.6242669624218805,-1.430827029037762,0.3895367227472521,0.3895367227472521,1.170500554541026,1.4436173506005987,1,0,1
36,37,1.0,37,40,80,64,1,3381.75,74,1358.6689999999999,LESS,-806,1750,944,0,0,158,80,78,0,-16.0,-1.4998535370791803,16.0,1.2222530175967619,0.38883333852157215,0.5104655825048964,-0.03989005496364707,0.0,-0.07803337030273506,-1.430827029037762,-0.6145690188561199,0.6145690188561199,-0.6242669624218805,0.0,0,0,0
37,38,1.0,38,31,80,78,0,2209.993,34,1186.315,LESS,-659,1159,500,0,0,234,124,110,0,-2.0,-0.18748169213489754,2.0,-1.2222530175967619,-1.6689395665540017,-0.4455758590731359,1.4759320336549415,1.7167341466601715,1.170500554541026,-1.430827029037762,-0.3386745440604271,0.3386745440604271,-0.07803337030273506,0.0,1,0,1
38,39,1.0,39,46,124,110,1,3602.313,64,1465.37,LESS,171,1444,1615,0,0,202,92,110,1,-14.0,-1.3123718449442827,14.0,0.8730378697119728,-0.1256098877473213,0.6904238575386923,0.8376911542365885,0.4682002218164104,1.170500554541026,-1.430827029037762,1.2190969802962062,1.2190969802962062,1.170500554541026,1.7167341466601715,0,1,0
39,40,1.0,40,58,92,110,0,2506.099,84,3023.2659999999996,LESS,-629,1285,656,0,0,241,110,131,0,18.0,1.687335229214078,18.0,1.571468165481551,0.9032765647904656,-0.20398173409679268,1.6155472260277064,1.170500554541026,1.9898509427197442,-1.430827029037762,-0.2823695492041632,0.2823695492041632,1.170500554541026,0.4682002218164104,0,1,1
40,41,1.0,41,49,110,131,1,1734.2839999999999,74,2314.899,MORE,-370,726,356,0,0,97,47,50,0,21.0,1.9685577674164243,21.0,2.095290887308735,0.38883333852157215,-0.8337088236141149,-1.2565367313548828,-1.2875506099951286,-1.170500554541026,-1.430827029037762,0.20373023972158139,0.20373023972158139,1.9898509427197442,1.170500554541026,0,1,0
41,42,1.0,42,13,47,50,0,6555.37,64,2919.4190000000003,MORE,-2133,3361,1228,4,1,94,50,44,1,3.0,0.28122253820234633,3.0,-1.0476454436543674,-0.1256098877473213,3.0998354260994936,-1.3163718138003533,-1.170500554541026,-1.4046006654492311,1.4917132855925606,-3.105126624664858,3.105126624664858,-1.170500554541026,-1.2875506099951286,1,1,0
42,43,1.0,43,16,50,44,0,3174.566,64,1513.1989999999998,MORE,-239,1365,1126,3,2,107,57,50,1,-6.0,-0.5624450764046927,6.0,-0.5238227218271837,-0.1256098877473213,0.3414232895790566,-1.0570864565366473,-0.8973837584814532,-1.170500554541026,0.7610782069349799,0.4495953839272669,0.4495953839272669,-1.4046006654492311,-1.170500554541026,0,1,1
43,44,1.0,44,7,57,50,1,2877.579,74,1177.6760000000002,MORE,-625,1472,847,2,2,92,42,50,0,-7.0,-0.6561859224721414,7.0,-0.34921514788478913,0.38883333852157215,0.09911035301461986,-1.3562618687640005,-1.4826340357519663,-1.170500554541026,0.030443128277399246,-0.2748622165566614,0.2748622165566614,-1.170500554541026,-0.8973837584814532,0,0,1
44,45,1.0,45,18,42,50,1,1806.31,54,1375.2279999999998,MORE,-109,772,663,2,1,218,108,110,0,8.0,0.7499267685395902,8.0,-0.17460757394239457,-0.6400531140162148,-0.77494250869464,1.156811593945765,1.092467184238291,1.170500554541026,0.030443128277399246,0.6935836949710769,0.6935836949710769,-1.170500554541026,-1.4826340357519663,0,0,0
45,46,1.0,46,51,108,110,0,3636.816,64,1251.974,MORE,-286,1454,1168,2,1,158,78,80,0,2.0,0.18748169213489754,2.0,-1.2222530175967619,-0.1256098877473213,0.7185749996771787,-0.03989005496364707,-0.07803337030273506,0.0,0.030443128277399246,0.3613842253191202,0.3613842253191202,1.170500554541026,1.092467184238291,0,0,0
46,47,1.0,47,31,78,80,1,3650.2659999999996,100,1077.556,MORE,-1020,2008,988,2,1,202,110,92,1,2.0,0.18748169213489754,2.0,-1.2222530175967619,1.7263857268206952,0.7295489109823596,0.8376911542365885,1.170500554541026,0.4682002218164104,0.030443128277399246,-1.0162113154974688,1.0162113154974688,0.0,-0.07803337030273506,1,0,1
47,48,1.0,48,58,110,92,0,3078.223,74,1222.433,MORE,-261,1327,1066,5,1,98,50,48,1,-18.0,-1.687335229214078,18.0,1.571468165481551,0.38883333852157215,0.26281663256232685,-1.2365917038730592,-1.170500554541026,-1.248533924843761,2.2223483642501414,0.4083050543660067,0.4083050543660067,0.4682002218164104,1.170500554541026,1,1,0
48,49,1.0,49,12,50,48,1,1259.268,94,1471.1989999999998,MORE,-93,466,373,2,2,211,110,101,1,-2.0,-0.18748169213489754,2.0,-1.2222530175967619,1.417719791059359,-1.2212763665540167,1.0171964015730004,1.170500554541026,0.8193503881787182,0.030443128277399246,0.7236130255610843,0.7236130255610843,-1.248533924843761,-1.170500554541026,0,1,0
49,50,1.0,50,54,110,101,0,3440.738,24,2589.771,MORE,-365,1529,1164,5,2,96,46,50,0,-9.0,-0.843667614607039,9.0,0.0,-2.1833827928228953,0.5585941386439293,-1.2764817588367063,-1.3265672951464962,-1.170500554541026,2.2223483642501414,0.2131144055309587,0.2131144055309587,0.8193503881787182,1.170500554541026,1,0,0
50,51,1.0,51,14,46,50,1,5698.026999999999,44,1077.134,MORE,-625,1972,1347,5,2,163,80,83,0,4.0,0.3749633842697951,4.0,-0.8730378697119728,-1.1544963402851083,2.4003256833398297,0.05983508244547061,0.0,0.1170500554541026,2.2223483642501414,-0.2748622165566614,0.2748622165566614,-1.170500554541026,-1.3265672951464962,1,1,1
51,52,1.0,52,22,80,83,1,8224.466999999999,64,1717.749,MORE,-2043,4458,2415,2,1,106,50,56,0,3.0,0.28122253820234633,3.0,-1.0476454436543674,-0.1256098877473213,4.461658655671467,-1.077031484018471,-1.170500554541026,-0.9364004436328208,0.030443128277399246,-2.936211640096066,2.936211640096066,0.1170500554541026,0.0,0,0,0
52,53,1.0,53,6,50,56,1,2626.1679999999997,64,2225.933,MORE,-856,1480,624,3,2,97,50,47,1,6.0,0.5624450764046927,6.0,-0.5238227218271837,-0.1256098877473213,-0.10601693435688696,-1.2565367313548828,-1.170500554541026,-1.2875506099951286,0.7610782069349799,-0.708410676949893,0.708410676949893,-0.9364004436328208,-1.170500554541026,0,0,0
53,54,1.0,54,13,50,47,0,1991.4129999999998,34,929.1110000000001,MORE,-711,1211,500,2,1,234,110,124,0,-3.0,-0.28122253820234633,3.0,-1.0476454436543674,-1.6689395665540017,-0.6239161961055806,1.4759320336549415,1.170500554541026,1.7167341466601715,0.030443128277399246,-0.4362698684779511,0.4362698684779511,-1.2875506099951286,-1.170500554541026,0,0,0
54,55,1.0,55,46,110,124,1,1671.149,64,893.164,MORE,-72,654,582,3,2,171,91,80,1,14.0,1.3123718449442827,14.0,0.8730378697119728,-0.1256098877473213,-0.8852209344135633,0.21939530230005888,0.4291835366650429,0.0,0.7610782069349799,0.763026521960469,0.763026521960469,1.7167341466601715,1.170500554541026,1,1,0
55,56,1.0,56,27,91,80,0,2607.607,54,1793.0870000000002,MORE,-1213,1765,552,5,2,144,64,80,0,-11.0,-1.0311493067419364,11.0,0.34921514788478913,-0.6400531140162148,-0.12116093195803633,-0.3191204397091766,-0.6242669624218805,0.0,2.2223483642501414,-1.378440115739433,1.378440115739433,0.0,0.4291835366650429,0,1,1
56,57,1.0,57,40,64,80,1,1527.826,100,813.322,MORE,37,562,599,3,2,163,83,80,1,16.0,1.4998535370791803,16.0,1.2222530175967619,1.7263857268206952,-1.0021587701007306,0.05983508244547061,0.1170500554541026,0.0,0.7610782069349799,0.9676013366048942,0.9676013366048942,0.0,-0.6242669624218805,0,0,1
57,58,1.0,58,22,83,80,0,5043.16,64,1399.128,MORE,-120,2088,1968,2,1,211,101,110,0,-3.0,-0.28122253820234633,3.0,-1.0476454436543674,-0.1256098877473213,1.8660169565971,1.0171964015730004,0.8193503881787182,1.170500554541026,0.030443128277399246,0.6729385301904468,0.6729385301904468,0.0,0.1170500554541026,1,1,0
58,59,1.0,59,54,101,110,1,2267.665,34,986.77,MORE,-238,996,758,4,1,106,56,50,1,9.0,0.843667614607039,9.0,0.0,-1.6689395665540017,-0.3985210328432194,-1.077031484018471,-0.9364004436328208,-1.170500554541026,1.4917132855925606,0.45147221708914237,0.45147221708914237,1.170500554541026,0.8193503881787182,1,1,1
59,60,1.0,60,6,56,50,0,4499.543,74,1357.733,MORE,-939,2333,1394,4,1,92,50,42,1,-6.0,-0.5624450764046927,6.0,-0.5238227218271837,0.38883333852157215,1.4224775705756594,-1.3562618687640005,-1.170500554541026,-1.4826340357519663,1.4917132855925606,-0.8641878293855564,0.8641878293855564,-1.170500554541026,-0.9364004436328208,0,0,1
60,61,1.0,61,18,50,42,0,5571.061,74,991.395,MORE,-695,2479,1784,2,1,227,110,117,0,-8.0,-0.7499267685395902,8.0,-0.17460757394239457,0.38883333852157215,2.2967335924272976,1.3363168412821769,1.170500554541026,1.4436173506005987,0.030443128277399246,-0.4062405378879437,0.4062405378879437,-1.4826340357519663,-1.170500554541026,1,0,0
61,62,1.0,62,43,110,117,1,2045.641,84,1732.67,MORE,-555,1108,553,2,1,157,77,80,0,7.0,0.6561859224721414,7.0,-0.34921514788478913,0.9032765647904656,-0.5796713438931392,-0.05983508244547061,-0.1170500554541026,0.0,0.030443128277399246,-0.14348389522537902,0.14348389522537902,1.4436173506005987,1.170500554541026,0,0,0
62,63,1.0,63,32,77,80,1,1402.112,64,2053.806,MORE,122,482,604,2,1,171,80,91,0,3.0,0.28122253820234633,3.0,-1.0476454436543674,-0.1256098877473213,-1.1047293489720673,0.21939530230005888,0.0,0.4291835366650429,0.030443128277399246,1.1271321553643086,1.1271321553643086,0.0,-0.1170500554541026,1,1,0
63,64,1.0,64,27,80,91,1,2736.625,74,1971.489,MORE,-334,1316,982,2,1,94,44,50,0,11.0,1.0311493067419364,11.0,0.34921514788478913,0.38883333852157215,-0.015894605655300712,-1.3163718138003533,-1.4046006654492311,-1.170500554541026,0.030443128277399246,0.27129623354909804,0.27129623354909804,0.4291835366650429,0.0,0,0,1
64,65,1.0,65,16,44,50,1,2065.604,64,2403.31,MORE,-72,818,746,2,1,107,50,57,0,6.0,0.5624450764046927,6.0,-0.5238227218271837,-0.1256098877473213,-0.5633834486228554,-1.0570864565366473,-1.170500554541026,-0.8973837584814532,0.030443128277399246,0.763026521960469,0.763026521960469,-1.170500554541026,-1.4046006654492311,1,0,1
65,66,1.0,66,7,50,57,1,3058.203,64,1657.954,MORE,-389,1416,1027,4,1,96,50,46,1,7.0,0.6561859224721414,7.0,-0.34921514788478913,-0.1256098877473213,0.246482230753426,-1.2764817588367063,-1.170500554541026,-1.3265672951464962,1.4917132855925606,0.16807040964594763,0.16807040964594763,-0.8973837584814532,-1.170500554541026,0,0,1
66,67,1.0,67,14,50,46,1,1613.454,64,1014.648,MORE,-2,608,606,2,1,218,110,108,1,-4.0,-0.3749633842697951,4.0,-0.8730378697119728,-0.1256098877473213,-0.9322945264397637,1.156811593945765,1.170500554541026,1.092467184238291,0.030443128277399246,0.8944048432917513,0.8944048432917513,-1.3265672951464962,-1.170500554541026,0,1,0
67,68,1.0,68,51,110,108,1,1931.4820000000002,84,1086.5430000000001,MORE,-276,998,722,3,2,243,133,110,1,-2.0,-0.18748169213489754,2.0,-1.2222530175967619,0.9032765647904656,-0.6728141498922556,1.6554372809913533,2.0678843130224793,1.170500554541026,0.7610782069349799,0.3801525569378748,0.3801525569378748,1.092467184238291,1.170500554541026,0,0,1
68,69,1.0,69,50,133,110,0,4895.517,74,964.5830000000001,MORE,-1758,3006,1248,4,1,241,131,110,1,-23.0,-2.1560394595513217,23.0,2.4445060351935237,0.38883333852157215,1.7455544148252946,1.6155472260277064,1.9898509427197442,1.170500554541026,1.4917132855925606,-2.4013141889615595,2.4013141889615595,1.170500554541026,2.0678843130224793,0,0,0
69,70,1.0,70,49,131,110,1,3197.86,34,1226.5610000000001,MORE,-504,1512,1008,1,2,236,126,110,1,-21.0,-1.9685577674164243,21.0,2.095290887308735,-1.6689395665540017,0.3604289616937689,1.5158220886185887,1.7947675169629065,1.170500554541026,-0.7001919503801813,-0.04776540396973048,0.04776540396973048,1.170500554541026,1.9898509427197442,0,1,0
70,71,1.0,71,47,126,110,1,2000.6879999999999,64,1976.766,MORE,-80,814,734,1,2,243,110,133,0,-16.0,-1.4998535370791803,16.0,1.2222530175967619,-0.1256098877473213,-0.6163486847780303,1.6554372809913533,1.170500554541026,2.0678843130224793,-0.7001919503801813,0.7480118566654653,0.7480118566654653,1.170500554541026,1.7947675169629065,1,1,1
71,72,1.0,72,50,110,133,1,1921.251,94,1085.583,MORE,-347,902,555,3,2,236,110,126,0,23.0,2.1560394595513217,23.0,2.4445060351935237,1.417719791059359,-0.6811616656218692,1.5158220886185887,1.170500554541026,1.7947675169629065,0.7610782069349799,0.246897402444717,0.246897402444717,2.0678843130224793,1.170500554541026,0,1,0
72,73,1.0,73,47,110,126,1,2050.4970000000003,94,671.347,MORE,-148,986,838,2,1,98,48,50,0,16.0,1.4998535370791803,16.0,1.2222530175967619,1.417719791059359,-0.575709313164666,-1.2365917038730592,-1.248533924843761,-1.170500554541026,0.030443128277399246,0.6203872016579339,0.6203872016579339,1.7947675169629065,1.170500554541026,0,1,0
73,74,1.0,74,12,48,50,1,2219.756,64,947.498,MORE,758,504,1262,3,2,157,80,77,1,2.0,0.18748169213489754,2.0,-1.2222530175967619,-0.1256098877473213,-0.43761018650269146,-0.05983508244547061,0.0,-0.1170500554541026,0.7610782069349799,2.320798046317102,2.320798046317102,-1.170500554541026,-1.248533924843761,0,1,0
74,75,1.0,75,32,80,77,1,1635.473,34,1756.646,MORE,-84,644,560,1,2,227,117,110,1,-3.0,-0.28122253820234633,3.0,-1.0476454436543674,-1.6689395665540017,-0.9143291321625316,1.3363168412821769,1.4436173506005987,1.170500554541026,-0.7001919503801813,0.7405045240179634,0.7405045240179634,-0.1170500554541026,0.0,0,1,1
75,76,1.0,76,43,117,110,0,5608.432,64,1783.309,MORE,-278,2478,2200,2,1,144,80,64,1,-7.0,-0.6561859224721414,7.0,-0.34921514788478913,-0.1256098877473213,2.3272247477719743,-0.3191204397091766,0.0,-0.6242669624218805,0.030443128277399246,0.37639889061412385,0.37639889061412385,1.170500554541026,1.4436173506005987,1,0,0
76,77,1.0,77,40,80,64,0,4443.018,34,914.203,MORE,-517,2139,1622,3,2,158,80,78,1,-16.0,-1.4998535370791803,16.0,1.2222530175967619,-1.6689395665540017,1.376358586447382,-0.03989005496364707,0.0,-0.07803337030273506,0.7610782069349799,-0.07216423507411149,0.07216423507411149,-0.6242669624218805,0.0,0,1,0
77,78,1.0,78,31,80,78,1,2620.927,100,1013.7130000000001,MORE,-221,1098,877,3,2,234,124,110,1,-2.0,-0.18748169213489754,2.0,-1.2222530175967619,1.7263857268206952,-0.11029308819706922,1.4759320336549415,1.7167341466601715,1.170500554541026,0.7610782069349799,0.4833783808410252,0.4833783808410252,-0.07803337030273506,0.0,0,0,1
78,79,1.0,79,46,124,110,1,1725.9029999999998,64,2174.1620000000003,MORE,-203,784,581,2,1,202,92,110,0,-14.0,-1.3123718449442827,14.0,0.8730378697119728,-0.1256098877473213,-0.84054691659915,0.8376911542365885,0.4682002218164104,1.170500554541026,0.030443128277399246,0.5171613777547835,0.5171613777547835,1.170500554541026,1.7167341466601715,1,0,0
79,80,1.0,80,58,92,110,1,3225.23,54,1560.319,MORE,-454,1620,1166,3,2,238,128,110,0,18.0,1.687335229214078,18.0,1.571468165481551,-0.6400531140162148,0.38276025927167173,1.5557121435822359,1.8728008872656416,1.170500554541026,0.7610782069349799,0.04607625412404261,0.04607625412404261,1.170500554541026,0.4682002218164104,0,0,0
80,81,1.0,81,48,128,110,1,7964.3009999999995,54,1952.1170000000002,LESS,-675,3456,2781,2,1,108,50,58,1,-18.0,-1.687335229214078,18.0,1.571468165481551,-0.6400531140162148,4.249388127149264,-1.0371414290548238,-1.170500554541026,-0.8583670733300858,0.030443128277399246,-0.3687038746504344,0.3687038746504344,1.170500554541026,1.8728008872656416,0,1,0
81,82,1.0,82,8,50,58,0,1743.8239999999998,64,2343.446,LESS,-418,884,466,0,2,104,54,50,0,8.0,0.7499267685395902,8.0,-0.17460757394239457,-0.1256098877473213,-0.8259250976772066,-1.116921538982118,-1.0144338139355558,-1.170500554541026,-1.430827029037762,0.11364224795155924,0.11364224795155924,-0.8583670733300858,-1.170500554541026,1,0,1
82,83,1.0,83,4,54,50,0,2122.334,54,1286.756,LESS,-804,1334,530,4,1,149,80,69,0,-4.0,-0.3749633842697951,4.0,-0.8730378697119728,-0.6400531140162148,-0.5170972041363946,-0.21939530230005888,0.0,-0.4291835366650429,1.4917132855925606,-0.610815352532369,0.610815352532369,-1.170500554541026,-1.0144338139355558,0,1,1
83,84,1.0,84,37,80,69,1,2518.011,84,2851.118,LESS,-902,1568,666,4,1,215,105,110,1,-11.0,-1.0311493067419364,11.0,0.34921514788478913,0.9032765647904656,-0.19426268343007821,1.0969765115002945,0.9754171287841883,1.170500554541026,1.4917132855925606,-0.7947450023961643,0.7947450023961643,-0.4291835366650429,0.0,0,1,1
84,85,1.0,85,52,105,110,0,2201.475,64,1874.471,LESS,-334,1102,768,3,2,105,55,50,0,5.0,0.46870423033724384,5.0,-0.6984302957695783,-0.1256098877473213,-0.45252573093168824,-1.0969765115002945,-0.9754171287841883,-1.170500554541026,0.7610782069349799,0.27129623354909804,0.27129623354909804,1.170500554541026,0.9754171287841883,1,1,1
85,86,1.0,86,5,55,50,0,2131.478,64,1083.81,LESS,-315,983,668,1,2,176,96,80,0,-5.0,-0.46870423033724384,5.0,-0.6984302957695783,-0.1256098877473213,-0.5096365762572441,0.3191204397091766,0.6242669624218805,0.0,-0.7001919503801813,0.30695606362473177,0.30695606362473177,-1.170500554541026,-0.9754171287841883,1,1,1
86,87,1.0,87,30,96,80,0,2017.4289999999999,4,1183.942,LESS,-539,1043,504,3,1,155,80,75,0,-16.0,-1.4998535370791803,16.0,1.2222530175967619,-3.212269245360682,-0.602689632795872,-0.09972513740911768,0.0,-0.19508342575683765,0.7610782069349799,-0.11345456463537164,0.11345456463537164,0.0,0.6242669624218805,0,0,1
87,88,1.0,88,33,80,75,1,3241.381,64,1875.6879999999999,LESS,315,1180,1495,1,2,238,110,128,1,-5.0,-0.46870423033724384,5.0,-0.6984302957695783,-0.1256098877473213,0.3959379277839372,1.5557121435822359,1.170500554541026,1.8728008872656416,-0.7001919503801813,1.4893609556062726,1.4893609556062726,-0.19508342575683765,0.0,0,0,1
88,89,1.0,89,48,110,128,0,2528.386,64,1824.7879999999998,LESS,-965,1591,626,4,1,109,59,50,0,18.0,1.687335229214078,18.0,1.571468165481551,-0.1256098877473213,-0.18579767749764334,-1.0171964015730004,-0.8193503881787182,-1.170500554541026,1.4917132855925606,-0.9129854915943183,0.9129854915943183,1.8728008872656416,1.170500554541026,0,1,1
89,90,1.0,90,9,59,50,1,1679.8729999999998,64,1211.035,LESS,70,628,698,1,2,229,110,119,1,-9.0,-0.843667614607039,9.0,0.0,-0.1256098877473213,-0.8781029862926419,1.376206896245824,1.170500554541026,1.5216507209033339,-0.7001919503801813,1.0295368309467845,1.0295368309467845,-1.170500554541026,-0.8193503881787182,0,0,0
90,91,1.0,91,44,110,119,0,1513.221,24,1929.3329999999999,LESS,-275,689,414,4,1,102,52,50,0,9.0,0.843667614607039,9.0,0.0,-2.1833827928228953,-1.0140750507410403,-1.156811593945765,-1.092467184238291,-1.170500554541026,1.4917132855925606,0.3820293900997503,0.3820293900997503,1.5216507209033339,1.170500554541026,1,1,0
91,92,1.0,92,2,52,50,1,3359.407,74,1520.963,LESS,593,1046,1639,3,2,108,58,50,0,-2.0,-0.18748169213489754,2.0,-1.2222530175967619,0.38883333852157215,0.4922358352713165,-1.0371414290548238,-0.8583670733300858,-1.170500554541026,0.7610782069349799,2.011120574607651,2.011120574607651,-1.170500554541026,-1.092467184238291,0,1,1
92,93,1.0,93,8,58,50,0,3815.203,74,1109.56,LESS,-354,1722,1368,7,2,229,119,110,0,-8.0,-0.7499267685395902,8.0,-0.17460757394239457,0.38883333852157215,0.8641216997513244,1.376206896245824,1.5216507209033339,1.170500554541026,3.6836185215653026,0.23375957031158878,0.23375957031158878,-1.170500554541026,-0.8583670733300858,1,1,1
93,94,1.0,94,44,119,110,0,4747.633,24,1125.921,LESS,450,1730,2180,3,2,154,74,80,1,-9.0,-0.843667614607039,9.0,0.0,-2.1833827928228953,1.6248952401446008,-0.11967016489094122,-0.2341001109082052,0.0,0.7610782069349799,1.7427334324594599,1.7427334324594599,1.170500554541026,1.5216507209033339,1,1,0
94,95,1.0,95,34,74,80,0,3013.6240000000003,100,1360.27,LESS,64,1144,1208,2,1,166,86,80,0,6.0,0.5624450764046927,6.0,-0.5238227218271837,1.7263857268206952,0.21011003803419637,0.11967016489094122,0.2341001109082052,0.0,0.030443128277399246,1.0182758319755316,1.0182758319755316,0.0,-0.2341001109082052,1,0,0
95,96,1.0,96,24,86,80,0,3695.847,74,2038.684,LESS,-520,1784,1264,1,2,146,66,80,1,-6.0,-0.5624450764046927,6.0,-0.5238227218271837,0.38883333852157215,0.7667386396962214,-0.2792303847455295,-0.5462335921191455,0.0,-0.7001919503801813,-0.07779473455973787,0.07779473455973787,0.0,0.2341001109082052,1,1,0
96,97,1.0,97,39,66,80,0,1818.684,74,1972.9470000000001,LESS,-475,991,516,2,1,109,50,59,1,14.0,1.3123718449442827,14.0,0.8730378697119728,0.38883333852157215,-0.7648465102938738,-1.0171964015730004,-1.170500554541026,-0.8193503881787182,0.030443128277399246,0.00666275772465791,0.00666275772465791,0.0,-0.5462335921191455,1,1,1
97,98,1.0,98,9,50,59,0,3040.837,74,1288.515,LESS,-1394,1986,592,1,2,204,94,110,1,9.0,0.843667614607039,9.0,0.0,0.38883333852157215,0.232313238654856,0.8775812092002355,0.5462335921191455,1.170500554541026,-0.7001919503801813,-1.7181469180388915,1.7181469180388915,-0.8193503881787182,-1.170500554541026,1,1,1
98,99,1.0,99,57,94,110,0,3156.8070000000002,100,1195.264,LESS,-1260,1864,604,6,1,197,110,87,0,16.0,1.4998535370791803,16.0,1.2222530175967619,1.7263857268206952,0.3269336471352869,0.7379660168274708,1.170500554541026,0.27311679605957273,2.9529834429077217,-1.4666512743475797,1.4666512743475797,1.170500554541026,0.5462335921191455,1,1,1
99,100,1.0,100,60,110,87,1,5926.643,94,1651.2089999999998,LESS,-1963,3560,1597,1,2,155,75,80,1,-23.0,-2.1560394595513217,23.0,2.4445060351935237,1.417719791059359,2.586854434785568,-0.09972513740911768,-0.19508342575683765,0.0,-0.7001919503801813,-2.7860649871460295,2.7860649871460295,0.27311679605957273,1.170500554541026,1,1,0
100,101,1.0,101,33,75,80,1,4156.099,94,1382.8929999999998,LESS,775,1467,2242,4,1,95,50,45,0,5.0,0.46870423033724384,5.0,-0.6984302957695783,1.417719791059359,1.1422601732301985,-1.2964267863185297,-1.170500554541026,-1.3655839802978638,1.4917132855925606,2.352704210068985,2.352704210068985,0.0,-0.19508342575683765,0,0,0
101,102,1.0,102,15,50,45,1,2333.893,64,2767.159,LESS,-311,1145,834,4,1,199,89,110,1,-5.0,-0.46870423033724384,5.0,-0.6984302957695783,-0.1256098877473213,-0.3444853303956727,0.7778560717911179,0.3511501663623078,1.170500554541026,1.4917132855925606,0.31446339627223363,0.31446339627223363,-1.3655839802978638,-1.170500554541026,1,1,0
102,103,1.0,103,59,89,110,0,2362.993,84,1411.2120000000002,LESS,24,832,856,1,2,174,80,94,1,21.0,1.9685577674164243,21.0,2.095290887308735,0.9032765647904656,-0.3207425185755422,0.2792303847455295,0.0,0.5462335921191455,-0.7001919503801813,0.9432025055005133,0.9432025055005133,1.170500554541026,0.3511501663623078,1,1,1
103,104,1.0,104,29,80,94,0,1705.088,54,1625.9920000000002,LESS,-130,760,630,1,2,208,110,98,0,14.0,1.3123718449442827,14.0,0.8730378697119728,-0.6400531140162148,-0.8575299622361264,0.9573613191275298,1.170500554541026,0.7023003327246156,-0.7001919503801813,0.6541701985716922,0.6541701985716922,0.5462335921191455,0.0,0,1,1
104,105,1.0,105,55,110,98,1,1720.385,64,1479.807,LESS,-428,968,540,3,2,174,94,80,0,-12.0,-1.1248901528093853,12.0,0.5238227218271837,-0.1256098877473213,-0.8450490758989259,0.2792303847455295,0.5462335921191455,0.0,0.7610782069349799,0.0948739163328046,0.0948739163328046,0.7023003327246156,1.170500554541026,0,1,1
105,106,1.0,106,29,94,80,0,1728.2179999999998,24,1289.573,LESS,-138,700,562,0,2,204,110,94,0,-14.0,-1.3123718449442827,14.0,0.8730378697119728,-2.1833827928228953,-0.8386580984079611,0.8775812092002355,1.170500554541026,0.5462335921191455,-1.430827029037762,0.6391555332766885,0.6391555332766885,0.0,0.5462335921191455,0,0,1
106,107,1.0,107,57,110,94,1,2498.348,64,1178.775,LESS,-295,1216,921,3,2,146,80,66,0,-16.0,-1.4998535370791803,16.0,1.2222530175967619,-0.1256098877473213,-0.21030580744448465,-0.2792303847455295,0.0,-0.5462335921191455,0.7610782069349799,0.344492726862241,0.344492726862241,0.5462335921191455,1.170500554541026,0,1,0
107,108,1.0,108,39,80,66,1,3240.4590000000003,54,1331.467,LESS,396,1148,1544,1,2,104,50,54,1,-14.0,-1.3123718449442827,14.0,0.8730378697119728,-0.6400531140162148,0.3951856641242073,-1.116921538982118,-1.170500554541026,-1.0144338139355558,-0.7001919503801813,1.641384441718185,1.641384441718185,-0.5462335921191455,0.0,1,0,0
108,109,1.0,109,4,50,54,1,2765.97,84,1498.4129999999998,LESS,-193,1174,981,1,2,208,98,110,1,4.0,0.3749633842697951,4.0,-0.8730378697119728,0.9032765647904656,0.008048102690463096,0.9573613191275298,0.7023003327246156,1.170500554541026,-0.7001919503801813,0.5359297093735381,0.5359297093735381,-1.0144338139355558,-1.170500554541026,1,1,0
109,110,1.0,110,55,98,110,1,2998.353,84,982.9830000000001,LESS,-419,1404,985,4,1,102,50,52,1,12.0,1.1248901528093853,12.0,0.5238227218271837,0.9032765647904656,0.19765036520583795,-1.156811593945765,-1.170500554541026,-1.092467184238291,1.4917132855925606,0.11176541478968377,0.11176541478968377,1.170500554541026,0.7023003327246156,1,1,1
110,111,1.0,111,2,50,52,0,2079.715,54,1525.128,LESS,-378,976,598,2,2,199,110,89,0,2.0,0.18748169213489754,2.0,-1.2222530175967619,-0.6400531140162148,-0.5518702246505574,0.7778560717911179,1.170500554541026,0.3511501663623078,0.030443128277399246,0.1887155744265777,0.1887155744265777,-1.092467184238291,-1.170500554541026,1,1,0
111,112,1.0,112,59,110,89,1,1666.1029999999998,64,1778.183,LESS,-302,810,508,1,2,197,87,110,1,-21.0,-1.9685577674164243,21.0,2.095290887308735,-0.1256098877473213,-0.8893379869374254,0.7379660168274708,0.27311679605957273,1.170500554541026,-0.7001919503801813,0.3313548947291128,0.3313548947291128,0.3511501663623078,1.170500554541026,0,0,1
112,113,1.0,113,60,87,110,0,2426.928,64,901.8489999999999,LESS,-1122,1616,494,1,2,215,110,105,0,23.0,2.1560394595513217,23.0,2.4445060351935237,-0.1256098877473213,-0.26857768442708696,1.0969765115002945,1.170500554541026,0.9754171287841883,-0.7001919503801813,-1.207648298008766,1.207648298008766,1.170500554541026,0.27311679605957273,0,0,0
113,114,1.0,114,52,110,105,1,3263.2990000000004,74,903.194,LESS,-796,1734,938,1,2,176,80,96,1,-5.0,-0.46870423033724384,5.0,-0.6984302957695783,0.38883333852157215,0.41382091573835766,0.3191204397091766,0.0,0.6242669624218805,-0.7001919503801813,-0.5958006872373653,0.5958006872373653,0.9754171287841883,1.170500554541026,0,1,0
114,115,1.0,115,30,80,96,0,1723.836,84,872.135,LESS,57,556,613,1,2,166,80,86,1,16.0,1.4998535370791803,16.0,1.2222530175967619,0.9032765647904656,-0.8422333905521467,0.11967016489094122,0.0,0.2341001109082052,-0.7001919503801813,1.0051379998424035,1.0051379998424035,0.6242669624218805,0.0,1,1,1
115,116,1.0,116,24,80,86,0,1368.6429999999998,94,1116.496,LESS,121,464,585,0,2,105,50,55,1,6.0,0.5624450764046927,6.0,-0.5238227218271837,1.417719791059359,-1.1320368461819628,-1.0969765115002945,-1.170500554541026,-0.9754171287841883,-1.430827029037762,1.125255322202433,1.125255322202433,0.2341001109082052,0.0,0,1,0
116,117,1.0,117,5,50,55,0,1990.443,74,1166.4080000000001,LESS,-514,1108,594,6,1,154,80,74,0,5.0,0.46870423033724384,5.0,-0.6984302957695783,0.38883333852157215,-0.6247076231662516,-0.11967016489094122,0.0,-0.2341001109082052,2.9529834429077217,-0.0665337355884851,0.0665337355884851,-0.9754171287841883,-1.170500554541026,1,0,1
117,118,1.0,118,34,80,74,0,2997.1259999999997,94,929.632,LESS,-468,1510,1042,4,1,95,45,50,1,-6.0,-0.5624450764046927,6.0,-0.5238227218271837,1.417719791059359,0.19664925076929854,-1.2964267863185297,-1.3655839802978638,-1.170500554541026,1.4917132855925606,0.01980058985778614,0.01980058985778614,-0.2341001109082052,0.0,1,0,1
118,119,1.0,119,15,45,50,0,1573.53,54,1699.412,LESS,22,582,604,3,2,149,69,80,1,5.0,0.46870423033724384,5.0,-0.6984302957695783,-0.6400531140162148,-0.9648686851719593,-0.21939530230005888,-0.4291835366650429,0.0,0.7610782069349799,0.9394488391767624,0.9394488391767624,-1.170500554541026,-1.3655839802978638,1,0,0
119,120,1.0,120,37,69,80,0,2306.153,64,1397.4189999999999,LESS,-566,1280,714,1,2,238,128,110,1,11.0,1.0311493067419364,11.0,0.34921514788478913,-0.1256098877473213,-0.3671185125224915,1.5557121435822359,1.8728008872656416,1.170500554541026,-0.7001919503801813,-0.1641290600060091,0.1641290600060091,0.0,-0.4291835366650429,1,0,0
120,121,1.0,121,48,128,110,0,1686.53,84,947.11,MORE,-449,935,486,3,2,108,50,58,0,-18.0,-1.687335229214078,18.0,1.571468165481551,0.9032765647904656,-0.8726715121247169,-1.0371414290548238,-1.170500554541026,-0.8583670733300858,0.7610782069349799,0.055460419933419915,0.055460419933419915,1.170500554541026,1.8728008872656416,1,1,0
121,122,1.0,122,8,50,58,1,2010.5320000000002,74,1007.7189999999999,MORE,-197,942,745,4,2,104,54,50,1,8.0,0.7499267685395902,8.0,-0.17460757394239457,0.38883333852157215,-0.6083169239684989,-1.116921538982118,-1.0144338139355558,-1.170500554541026,1.4917132855925606,0.5284223767260363,0.5284223767260363,-0.8583670733300858,-1.170500554541026,0,1,0
122,123,1.0,123,4,54,50,0,2244.929,64,1086.016,MORE,-819,1381,562,2,1,149,80,69,1,-4.0,-0.3749633842697951,4.0,-0.8730378697119728,-0.1256098877473213,-0.41707143042199896,-0.21939530230005888,0.0,-0.4291835366650429,0.030443128277399246,-0.6389678499605009,0.6389678499605009,-1.170500554541026,-1.0144338139355558,1,0,0
123,124,1.0,124,37,80,69,0,2092.94,74,1731.996,MORE,-611,1229,618,2,1,215,105,110,0,-11.0,-1.0311493067419364,11.0,0.34921514788478913,0.38883333852157215,-0.5410798917872851,1.0969765115002945,0.9754171287841883,1.170500554541026,0.030443128277399246,-0.24858655229040488,0.24858655229040488,-0.4291835366650429,0.0,1,0,0
124,125,1.0,125,52,105,110,1,1361.319,94,676.7919999999999,MORE,-8,574,566,2,1,105,55,50,1,5.0,0.46870423033724384,5.0,-0.6984302957695783,1.417719791059359,-1.1380125284421219,-1.0969765115002945,-0.9754171287841883,-1.170500554541026,0.030443128277399246,0.8831438443204985,0.8831438443204985,1.170500554541026,0.9754171287841883,0,1,1
125,126,1.0,126,5,55,50,1,1596.589,74,931.7330000000001,MORE,85,616,701,2,1,176,96,80,1,-5.0,-0.46870423033724384,5.0,-0.6984302957695783,0.38883333852157215,-0.9460547505410182,0.3191204397091766,0.6242669624218805,0.0,0.030443128277399246,1.0576893283749165,1.0576893283749165,-1.170500554541026,-0.9754171287841883,1,1,1
126,127,1.0,127,30,96,80,0,2850.1209999999996,74,1650.773,MORE,-943,1621,678,2,1,155,80,75,1,-16.0,-1.4998535370791803,16.0,1.2222530175967619,0.38883333852157215,0.07670725586832615,-0.09972513740911768,0.0,-0.19508342575683765,0.030443128277399246,-0.8716951620330582,0.8716951620330582,0.0,0.6242669624218805,0,0,0
127,128,1.0,128,33,80,75,1,1380.8970000000002,94,1098.922,MORE,6,530,536,2,1,238,110,128,0,-5.0,-0.46870423033724384,5.0,-0.6984302957695783,1.417719791059359,-1.122038756283547,1.5557121435822359,1.170500554541026,1.8728008872656416,0.030443128277399246,0.909419508586755,0.909419508586755,-0.19508342575683765,0.0,0,0,0
128,129,1.0,129,48,110,128,1,1391.672,64,1794.924,MORE,102,524,626,3,2,109,59,50,1,18.0,1.687335229214078,18.0,1.571468165481551,-0.1256098877473213,-1.113247388676609,-1.0171964015730004,-0.8193503881787182,-1.170500554541026,0.7610782069349799,1.0895954921267992,1.0895954921267992,1.8728008872656416,1.170500554541026,1,0,0
129,130,1.0,130,9,59,50,0,2101.903,74,1239.822,MORE,-552,1140,588,2,1,229,110,119,0,-9.0,-0.843667614607039,9.0,0.0,0.38883333852157215,-0.5337669425658478,1.376206896245824,1.170500554541026,1.5216507209033339,0.030443128277399246,-0.13785339573975264,0.13785339573975264,-1.170500554541026,-0.8193503881787182,0,1,0
130,131,1.0,131,44,110,119,1,1582.34,54,1258.389,MORE,-235,823,588,1,2,102,52,50,1,9.0,0.843667614607039,9.0,0.0,-0.6400531140162148,-0.9576805692910195,-1.156811593945765,-1.092467184238291,-1.170500554541026,-0.7001919503801813,0.45710271657476875,0.45710271657476875,1.5216507209033339,1.170500554541026,1,1,1
131,132,1.0,132,2,52,50,0,2320.312,74,1463.68,MORE,-830,1338,508,2,1,108,58,50,1,-2.0,-0.18748169213489754,2.0,-1.2222530175967619,0.38883333852157215,-0.3555661251492533,-1.0371414290548238,-0.8583670733300858,-1.170500554541026,0.030443128277399246,-0.659613014741131,0.659613014741131,-1.170500554541026,-1.092467184238291,1,0,1
132,133,1.0,133,8,58,50,0,2184.782,64,1365.006,MORE,-322,1092,770,3,2,229,119,110,1,-8.0,-0.7499267685395902,8.0,-0.17460757394239457,-0.1256098877473213,-0.4661456195129059,1.376206896245824,1.5216507209033339,1.170500554541026,0.7610782069349799,0.2938182314916036,0.2938182314916036,-1.170500554541026,-0.8583670733300858,1,0,0
133,134,1.0,134,44,119,110,0,2602.6839999999997,24,1035.9769999999999,MORE,-525,1401,876,4,1,154,74,80,0,-9.0,-0.843667614607039,9.0,0.0,-2.1833827928228953,-0.12517762826698814,-0.11967016489094122,-0.2341001109082052,0.0,1.4917132855925606,-0.08717890036911517,0.08717890036911517,1.170500554541026,1.5216507209033339,1,0,0
134,135,1.0,135,34,74,80,1,2890.742,64,1896.005,MORE,-250,1258,1008,4,1,166,86,80,1,6.0,0.5624450764046927,6.0,-0.5238227218271837,-0.1256098877473213,0.10985009981834422,0.11967016489094122,0.2341001109082052,0.0,1.4917132855925606,0.4289502191466368,0.4289502191466368,0.0,-0.2341001109082052,0,0,0
135,136,1.0,136,24,86,80,1,1954.547,84,1049.5510000000002,MORE,-452,1024,572,3,2,146,66,80,0,-6.0,-0.5624450764046927,6.0,-0.5238227218271837,0.9032765647904656,-0.6539953198361967,-0.2792303847455295,-0.5462335921191455,0.0,0.7610782069349799,0.04982992044779353,0.04982992044779353,0.0,0.2341001109082052,1,0,0
136,137,1.0,137,39,66,80,1,1901.984,64,1813.237,MORE,214,744,958,3,2,109,50,59,0,14.0,1.3123718449442827,14.0,0.8730378697119728,-0.1256098877473213,-0.6968816915785172,-1.0171964015730004,-1.170500554541026,-0.8193503881787182,0.7610782069349799,1.299800806256851,1.299800806256851,0.0,-0.5462335921191455,1,1,1
137,138,1.0,138,9,50,59,1,3133.506,44,953.615,MORE,-618,1646,1028,2,1,204,94,110,0,9.0,0.843667614607039,9.0,0.0,-1.1544963402851083,0.307922263691271,0.8775812092002355,0.5462335921191455,1.170500554541026,0.030443128277399246,-0.26172438442353313,0.26172438442353313,-0.8193503881787182,-1.170500554541026,1,0,1
138,139,1.0,139,57,94,110,1,2545.4179999999997,64,2154.544,MORE,-406,1248,842,2,1,197,110,87,1,16.0,1.4998535370791803,16.0,1.2222530175967619,-0.1256098877473213,-0.17190119739728363,0.7379660168274708,1.170500554541026,0.27311679605957273,0.030443128277399246,0.13616424589406478,0.13616424589406478,1.170500554541026,0.5462335921191455,0,0,1
139,140,1.0,140,60,110,87,0,2023.4679999999998,74,1120.839,MORE,-656,1210,554,1,1,155,75,80,0,-23.0,-2.1560394595513217,23.0,2.4445060351935237,0.38883333852157215,-0.5977623874150552,-0.09972513740911768,-0.19508342575683765,0.0,-0.7001919503801813,-0.3330440445748007,0.3330440445748007,0.27311679605957273,1.170500554541026,1,0,0
140,141,1.0,141,33,75,80,1,3330.755,84,846.965,MORE,-390,1490,1100,3,2,95,50,45,1,5.0,0.46870423033724384,5.0,-0.6984302957695783,0.9032765647904656,0.46885854852662984,-1.2964267863185297,-1.170500554541026,-1.3655839802978638,0.7610782069349799,0.16619357648407215,0.16619357648407215,0.0,-0.19508342575683765,0,1,1
141,142,1.0,142,15,50,45,0,1866.57,54,2507.7070000000003,MORE,-355,949,594,3,2,199,89,110,0,-5.0,-0.46870423033724384,5.0,-0.6984302957695783,-0.6400531140162148,-0.7257761224306858,0.7778560717911179,0.3511501663623078,1.170500554541026,0.7610782069349799,0.23188273714971333,0.23188273714971333,-1.3655839802978638,-1.170500554541026,1,1,0
142,143,1.0,143,59,89,110,1,1604.858,74,1110.665,MORE,-125,783,658,2,1,174,80,94,0,21.0,1.9685577674164243,21.0,2.095290887308735,0.38883333852157215,-0.9393080388248443,0.2792303847455295,0.0,0.5462335921191455,0.030443128277399246,0.6635543643810695,0.6635543643810695,1.170500554541026,0.3511501663623078,1,1,1
143,144,1.0,144,29,80,94,1,2458.127,70,1505.0179999999998,MORE,-493,1266,773,3,2,208,110,98,1,14.0,1.3123718449442827,14.0,0.8730378697119728,0.1830560480140148,-0.24312228971999916,0.9573613191275298,1.170500554541026,0.7023003327246156,0.7610782069349799,-0.0271202391891004,0.0271202391891004,0.5462335921191455,0.0,0,1,0
144,145,1.0,145,55,110,98,0,4970.6359999999995,64,2027.965,MORE,-1109,2633,1524,1,2,174,94,80,1,-12.0,-1.1248901528093853,12.0,0.5238227218271837,-0.1256098877473213,1.8068443213928687,0.2792303847455295,0.5462335921191455,0.0,-0.7001919503801813,-1.183249466904385,1.183249466904385,0.7023003327246156,1.170500554541026,1,1,1
145,146,1.0,146,29,94,80,0,3115.157,64,1281.616,MORE,-1458,2112,654,2,1,204,110,94,1,-14.0,-1.3123718449442827,14.0,0.8730378697119728,-0.1256098877473213,0.29295123777760884,0.8775812092002355,1.170500554541026,0.5462335921191455,0.030443128277399246,-1.8382642403989211,1.8382642403989211,0.0,0.5462335921191455,0,0,1
146,147,1.0,147,57,110,94,0,3128.098,64,1306.006,MORE,-1171,1963,792,2,1,146,80,66,1,-16.0,-1.4998535370791803,16.0,1.2222530175967619,-0.1256098877473213,0.3035098538519836,-0.2792303847455295,0.0,-0.5462335921191455,0.030443128277399246,-1.2996131229406636,1.2996131229406636,0.5462335921191455,1.170500554541026,0,0,1
147,148,1.0,148,39,80,66,0,3745.136,80,1356.805,MORE,-1757,2549,792,3,2,104,50,54,0,-14.0,-1.3123718449442827,14.0,0.8730378697119728,0.6974992742829083,0.8069537411327302,-1.116921538982118,-1.170500554541026,-1.0144338139355558,0.7610782069349799,-2.399437355799684,2.399437355799684,-0.5462335921191455,0.0,1,0,1
148,149,1.0,149,4,50,54,1,3673.3520000000003,64,1957.8470000000002,MORE,-783,2014,1231,3,2,208,98,110,0,4.0,0.3749633842697951,4.0,-0.8730378697119728,-0.1256098877473213,0.7483848750263298,0.9573613191275298,0.7023003327246156,1.170500554541026,0.7610782069349799,-0.5714018561329843,0.5714018561329843,-1.0144338139355558,-1.170500554541026,1,0,1
149,150,1.0,150,55,98,110,1,4942.765,74,1805.4,MORE,-2010,3112,1102,3,2,102,50,52,0,12.0,1.1248901528093853,12.0,0.5238227218271837,0.38883333852157215,1.7841042558176499,-1.156811593945765,-1.170500554541026,-1.092467184238291,0.7610782069349799,-2.874276145754176,2.874276145754176,1.170500554541026,0.7023003327246156,0,1,1
150,151,1.0,151,2,50,52,0,2224.593,74,1510.151,MORE,-784,1362,578,3,2,199,110,89,1,2.0,0.18748169213489754,2.0,-1.2222530175967619,0.38883333852157215,-0.4336636579537578,0.7778560717911179,1.170500554541026,0.3511501663623078,0.7610782069349799,-0.5732786892948598,0.5732786892948598,-1.092467184238291,-1.170500554541026,0,0,0
151,152,1.0,152,59,110,89,1,2997.098,4,1262.236,MORE,-580,1572,992,2,1,197,87,110,0,-21.0,-1.9685577674164243,21.0,2.095290887308735,-3.212269245360682,0.1966264054520831,0.7379660168274708,0.27311679605957273,1.170500554541026,0.030443128277399246,-0.19040472427226557,0.19040472427226557,0.3511501663623078,1.170500554541026,0,0,1
152,153,1.0,153,60,87,110,1,1391.7379999999998,84,1035.328,MORE,-126,674,548,2,1,215,110,105,1,23.0,2.1560394595513217,23.0,2.4445060351935237,0.9032765647904656,-1.1131935390003163,1.0969765115002945,1.170500554541026,0.9754171287841883,0.030443128277399246,0.661677531219194,0.661677531219194,1.170500554541026,0.27311679605957273,0,1,1
153,154,1.0,154,52,110,105,0,3340.985,100,835.78,MORE,-1171,1951,780,2,1,176,80,96,0,-5.0,-0.46870423033724384,5.0,-0.6984302957695783,1.7263857268206952,0.4772052483520572,0.3191204397091766,0.0,0.6242669624218805,0.030443128277399246,-1.2996131229406636,1.2996131229406636,0.9754171287841883,1.170500554541026,1,0,1
154,155,1.0,155,30,80,96,1,1648.785,84,747.819,MORE,-430,938,508,3,2,166,80,86,0,16.0,1.4998535370791803,16.0,1.2222530175967619,0.9032765647904656,-0.9034678156350546,0.11967016489094122,0.0,0.2341001109082052,0.7610782069349799,0.09112025000905369,0.09112025000905369,0.6242669624218805,0.0,0,1,1
155,156,1.0,156,24,80,86,0,1990.089,44,1589.569,MORE,-610,1176,566,1,2,105,50,55,0,6.0,0.5624450764046927,6.0,-0.5238227218271837,-1.1544963402851083,-0.6249964532481872,-1.0969765115002945,-1.170500554541026,-0.9754171287841883,-0.7001919503801813,-0.24670971912852943,0.24670971912852943,0.2341001109082052,0.0,1,1,1
156,157,1.0,157,5,50,55,1,2490.532,74,893.86,MORE,-85,1096,1011,1,2,154,80,74,1,5.0,0.46870423033724384,5.0,-0.6984302957695783,0.38883333852157215,-0.21668291456428315,-0.11967016489094122,0.0,-0.2341001109082052,-0.7001919503801813,0.738627690856088,0.738627690856088,-0.9754171287841883,-1.170500554541026,1,0,0
157,158,1.0,158,34,80,74,0,2508.0170000000003,64,2009.535,MORE,-714,1374,660,2,1,95,45,50,0,-6.0,-0.5624450764046927,6.0,-0.5238227218271837,-0.1256098877473213,-0.20241682986754786,-1.2964267863185297,-1.3655839802978638,-1.170500554541026,0.030443128277399246,-0.44190036796357746,0.44190036796357746,-0.2341001109082052,0.0,1,0,1
158,159,1.0,159,15,45,50,1,2293.524,64,2147.895,MORE,-336,1108,772,3,2,149,69,80,0,5.0,0.46870423033724384,5.0,-0.6984302957695783,-0.1256098877473213,-0.37742256649075356,-0.21939530230005888,-0.4291835366650429,0.0,0.7610782069349799,0.2675425672253471,0.2675425672253471,-1.170500554541026,-1.3655839802978638,0,0,0
159,160,1.0,160,37,69,80,1,3004.8179999999998,24,800.012,MORE,-1124,1828,704,1,2,103,50,53,1,11.0,1.0311493067419364,11.0,0.34921514788478913,-2.1833827928228953,0.20292518577000113,-1.1368665664639415,-1.170500554541026,-1.0534504990869233,-0.7001919503801813,-1.211401964332517,1.211401964332517,0.0,-0.4291835366650429,1,0,0
160,161,1.0,161,3,50,53,0,2773.406,54,1318.6670000000001,LESS,-271,1303,1032,2,1,90,50,40,0,3.0,0.28122253820234633,3.0,-1.0476454436543674,-0.6400531140162148,0.014115166219483525,-1.3961519237276474,-1.170500554541026,-1.5606674060547012,0.030443128277399246,0.3895367227472521,0.3895367227472521,-1.0534504990869233,-1.170500554541026,1,0,1
161,162,1.0,162,20,50,40,1,2122.486,84,813.427,LESS,603,646,1249,2,1,168,80,88,1,-10.0,-0.9374084606744877,10.0,0.17460757394239457,0.9032765647904656,-0.5169731867000832,0.1595602198545883,0.0,0.31213348121094026,0.030443128277399246,2.0298889062264056,2.0298889062264056,-1.5606674060547012,-1.170500554541026,1,0,1
162,163,1.0,163,25,80,88,0,1541.2910000000002,64,889.138,LESS,-399,843,444,3,2,225,115,110,0,8.0,0.7499267685395902,8.0,-0.17460757394239457,-0.1256098877473213,-0.9911726202327559,1.2964267863185297,1.3655839802978638,1.170500554541026,0.7610782069349799,0.149302078027193,0.149302078027193,0.31213348121094026,0.0,0,0,0
163,164,1.0,164,42,115,110,0,1792.184,4,970.2639999999999,LESS,-297,841,544,2,1,213,103,110,1,-5.0,-0.46870423033724384,5.0,-0.6984302957695783,-3.212269245360682,-0.7864679712297316,1.0570864565366473,0.8973837584814532,1.170500554541026,0.030443128277399246,0.3407390605384901,0.3407390605384901,1.170500554541026,1.3655839802978638,0,0,1
164,165,1.0,165,53,103,110,0,1719.1229999999998,54,1986.11,LESS,-475,977,502,2,1,170,90,80,0,7.0,0.6561859224721414,7.0,-0.34921514788478913,-0.6400531140162148,-0.8460787469819847,0.19945027481823535,0.3901668515136753,0.0,0.030443128277399246,0.00666275772465791,0.00666275772465791,1.170500554541026,0.8973837584814532,1,0,0
165,166,1.0,166,26,90,80,1,5485.479,4,2758.4240000000004,LESS,37,2114,2151,1,2,152,80,72,0,-10.0,-0.9374084606744877,10.0,0.17460757394239457,-3.212269245360682,2.2269068803588987,-0.1595602198545883,0.0,-0.31213348121094026,-0.7001919503801813,0.9676013366048942,0.9676013366048942,0.0,0.3901668515136753,0,0,0
166,167,1.0,167,35,80,72,1,4941.353,74,1431.467,LESS,-1041,2636,1595,1,2,173,93,80,0,-8.0,-0.7499267685395902,8.0,-0.17460757394239457,0.38883333852157215,1.7829521991066524,0.25928535726370594,0.5072169069677779,0.0,-0.7001919503801813,-1.0556248118968536,1.0556248118968536,-0.31213348121094026,0.0,1,0,1
167,168,1.0,168,28,93,80,1,1580.2060000000001,64,2648.327,LESS,-158,752,594,2,1,170,80,90,1,-13.0,-1.218630998876834,13.0,0.6984302957695783,-0.1256098877473213,-0.9594217088244957,0.19945027481823535,0.0,0.3901668515136753,0.030443128277399246,0.6016188700391792,0.6016188700391792,0.0,0.5072169069677779,1,0,0
168,169,1.0,169,26,80,90,0,3148.962,64,1415.5120000000002,LESS,-76,1352,1276,1,2,168,88,80,0,10.0,0.9374084606744877,10.0,0.17460757394239457,-0.1256098877473213,0.3205328787940869,0.1595602198545883,0.31213348121094026,0.0,-0.7001919503801813,0.7555191893129671,0.7555191893129671,0.3901668515136753,0.0,1,0,1
169,170,1.0,170,25,88,80,1,2129.2,64,1067.862,LESS,-318,1062,744,1,2,150,80,70,0,-8.0,-0.7499267685395902,8.0,-0.17460757394239457,-0.1256098877473213,-0.5114952059935418,-0.19945027481823535,0.0,-0.3901668515136753,-0.7001919503801813,0.3013255641391054,0.3013255641391054,0.0,0.31213348121094026,1,0,0
170,171,1.0,171,36,80,70,0,1528.68,44,1224.553,LESS,-220,736,516,2,1,173,80,93,1,-10.0,-0.9374084606744877,10.0,0.17460757394239457,-1.1544963402851083,-1.0014619879256657,0.25928535726370594,0.0,0.5072169069677779,0.030443128277399246,0.48525521400290067,0.48525521400290067,-0.3901668515136753,0.0,0,0,0
171,172,1.0,172,28,80,93,0,1442.214,94,877.346,LESS,-53,566,513,1,2,162,82,80,0,13.0,1.218630998876834,13.0,0.6984302957695783,1.417719791059359,-1.0720099592947177,0.03989005496364707,0.07803337030273506,0.0,-0.7001919503801813,0.7986863520361027,0.7986863520361027,0.5072169069677779,0.0,1,0,1
172,173,1.0,173,21,82,80,0,1628.017,34,1046.34,LESS,-74,710,636,2,1,91,50,41,0,-2.0,-0.18748169213489754,2.0,-1.2222530175967619,-1.6689395665540017,-0.920412513775277,-1.376206896245824,-1.170500554541026,-1.5216507209033339,0.030443128277399246,0.7592728556367181,0.7592728556367181,0.0,0.07803337030273506,0,0,1
173,174,1.0,174,19,50,41,1,2346.231,64,2004.1,LESS,-562,1232,670,2,1,206,96,110,1,-9.0,-0.843667614607039,9.0,0.0,-0.1256098877473213,-0.3344187045456117,0.9174712641638826,0.6242669624218805,1.170500554541026,0.030443128277399246,-0.15662172735850727,0.15662172735850727,-1.5216507209033339,-1.170500554541026,1,0,1
174,175,1.0,175,56,96,110,0,3316.3390000000004,74,1293.82,LESS,-769,1868,1099,2,1,165,80,85,1,14.0,1.3123718449442827,14.0,0.8730378697119728,0.38883333852157215,0.45709647377752344,0.09972513740911768,0.0,0.19508342575683765,0.030443128277399246,-0.5451261918667278,0.5451261918667278,1.170500554541026,0.6242669624218805,1,0,1
175,176,1.0,176,23,80,85,0,3031.183,74,1120.025,LESS,-640,1538,898,3,2,110,60,50,0,5.0,0.46870423033724384,5.0,-0.6984302957695783,0.38883333852157215,0.22443649964071374,-0.9972513740911768,-0.7803337030273506,-1.170500554541026,0.7610782069349799,-0.3030147139847933,0.3030147139847933,0.19508342575683765,0.0,1,0,1
176,177,1.0,177,10,60,50,0,2266.764,64,1075.631,LESS,-684,1334,650,1,2,91,41,50,1,-10.0,-0.9374084606744877,10.0,0.17460757394239457,-0.1256098877473213,-0.3992561625150384,-1.376206896245824,-1.5216507209033339,-1.170500554541026,-0.7001919503801813,-0.3855953731073136,0.3855953731073136,-1.170500554541026,-0.7803337030273506,1,0,0
177,178,1.0,178,19,41,50,0,1321.42,100,742.828,LESS,76,534,610,1,2,206,110,96,0,9.0,0.843667614607039,9.0,0.0,1.7263857268206952,-1.170566289569661,0.9174712641638826,1.170500554541026,0.6242669624218805,-0.7001919503801813,1.0407978299180372,1.0407978299180372,-1.170500554541026,-1.5216507209033339,0,1,0
178,179,1.0,179,56,110,96,1,2265.431,64,1102.483,LESS,-801,1381,580,3,2,152,72,80,1,-14.0,-1.3123718449442827,14.0,0.8730378697119728,-0.1256098877473213,-0.4003437627953214,-0.1595602198545883,-0.31213348121094026,0.0,0.7610782069349799,-0.6051848530467426,0.6051848530467426,0.6242669624218805,1.170500554541026,0,1,0
179,180,1.0,180,35,72,80,0,4164.13,64,1025.624,LESS,-227,1949,1722,3,2,99,49,50,1,8.0,0.7499267685395902,8.0,-0.17460757394239457,-0.1256098877473213,1.1488126997500427,-1.2166466763912356,-1.2095172396923934,-1.170500554541026,0.7610782069349799,0.4721173818697724,0.4721173818697724,0.0,-0.31213348121094026,1,0,1
180,181,1.0,181,11,49,50,0,2726.3920000000003,54,1155.84,LESS,-959,1665,706,2,1,93,43,50,1,1.0,0.09374084606744877,1.0,-1.3968605915391565,-0.6400531140162148,-0.024243753193286234,-1.3363168412821769,-1.4436173506005987,-1.170500554541026,0.030443128277399246,-0.9017244926230655,0.9017244926230655,-1.170500554541026,-1.2095172396923934,0,0,0
181,182,1.0,182,17,43,50,1,2464.949,84,739.11,LESS,-717,1279,562,3,2,101,51,50,0,7.0,0.6561859224721414,7.0,-0.34921514788478913,0.9032765647904656,-0.23755619136134165,-1.1767566214275886,-1.1314838693896585,-1.170500554541026,0.7610782069349799,-0.44753086744920384,0.44753086744920384,-1.170500554541026,-1.4436173506005987,0,0,0
182,183,1.0,183,1,51,50,1,1844.3139999999999,74,1503.046,LESS,-385,920,535,2,1,222,112,110,0,-1.0,-0.09374084606744877,1.0,-1.3968605915391565,0.38883333852157215,-0.7439348860000611,1.2365917038730592,1.248533924843761,1.170500554541026,0.030443128277399246,0.17557774229344947,0.17557774229344947,-1.170500554541026,-1.1314838693896585,0,0,0
183,184,1.0,184,41,112,110,1,4667.099,84,1290.065,LESS,-158,1480,1322,1,2,90,40,50,1,-2.0,-0.18748169213489754,2.0,-1.2222530175967619,0.9032765647904656,1.5591872124084363,-1.3961519237276474,-1.5606674060547012,-1.170500554541026,-0.7001919503801813,0.6016188700391792,0.6016188700391792,1.170500554541026,1.248533924843761,1,1,0
184,185,1.0,185,20,40,50,0,3192.2270000000003,80,1272.118,LESS,-1003,1679,676,3,2,101,50,51,1,10.0,0.9374084606744877,10.0,0.17460757394239457,0.6974992742829083,0.35583297341257375,-1.1767566214275886,-1.170500554541026,-1.1314838693896585,0.7610782069349799,-0.984305151745586,0.984305151745586,-1.170500554541026,-1.5606674060547012,1,0,1
185,186,1.0,186,1,50,51,0,2169.18,74,1218.1989999999998,LESS,-612,1224,612,4,1,165,85,80,0,1.0,0.09374084606744877,1.0,-1.3968605915391565,0.38883333852157215,-0.47887535662691566,0.09972513740911768,0.19508342575683765,0.0,1.4917132855925606,-0.25046338545228036,0.25046338545228036,-1.1314838693896585,-1.170500554541026,0,0,1
186,187,1.0,187,23,85,80,1,2349.446,74,2338.112,LESS,-932,1471,539,2,1,99,50,49,0,-5.0,-0.46870423033724384,5.0,-0.6984302957695783,0.38883333852157215,-0.33179557258678993,-1.2166466763912356,-1.170500554541026,-1.2095172396923934,0.030443128277399246,-0.8510499972524281,0.8510499972524281,0.0,0.19508342575683765,0,1,0
187,188,1.0,188,11,50,49,0,3171.303,84,1148.621,LESS,-569,1619,1050,2,1,93,50,43,0,-1.0,-0.09374084606744877,1.0,-1.3968605915391565,0.9032765647904656,0.33876099421929423,-1.3363168412821769,-1.170500554541026,-1.4436173506005987,0.030443128277399246,-0.1697595594916355,0.1697595594916355,-1.2095172396923934,-1.170500554541026,0,1,1
188,189,1.0,189,17,50,43,0,2993.885,84,824.794,LESS,-1439,2063,624,2,1,162,80,82,1,-7.0,-0.6561859224721414,7.0,-0.34921514788478913,0.9032765647904656,0.19400490530163386,0.03989005496364707,0.0,0.07803337030273506,0.030443128277399246,-1.8026044103232872,1.8026044103232872,-1.4436173506005987,-1.170500554541026,0,0,0
189,190,1.0,190,21,80,82,0,2046.1970000000001,74,1904.786,LESS,-352,958,606,3,2,110,50,60,1,2.0,0.18748169213489754,2.0,-1.2222530175967619,0.38883333852157215,-0.5792177011655795,-0.9972513740911768,-1.170500554541026,-0.7803337030273506,0.7610782069349799,0.23751323663533971,0.23751323663533971,0.07803337030273506,0.0,0,1,1
190,191,1.0,191,10,50,60,0,2000.771,84,944.253,LESS,-679,1217,538,2,2,103,53,50,0,10.0,0.9374084606744877,10.0,0.17460757394239457,0.9032765647904656,-0.6162809647305709,-1.1368665664639415,-1.0534504990869233,-1.170500554541026,0.030443128277399246,-0.3762112072979363,0.3762112072979363,-0.7803337030273506,-1.170500554541026,0,0,1
191,192,1.0,192,3,53,50,1,3949.34,0,1103.5339999999999,LESS,-736,2104,1368,2,1,232,122,110,0,-3.0,-0.28122253820234633,3.0,-1.0476454436543674,-3.4180465358682395,0.9735646395835188,1.4360419786912946,1.6387007763574364,1.170500554541026,0.030443128277399246,-0.4831906975248376,0.4831906975248376,-1.170500554541026,-1.0534504990869233,1,1,1
192,193,1.0,193,45,122,110,1,2302.897,64,1668.531,LESS,-668,1300,632,2,1,147,67,80,1,-12.0,-1.1248901528093853,12.0,0.5238227218271837,-0.1256098877473213,-0.36977509655295,-0.25928535726370594,-0.5072169069677779,0.0,0.030443128277399246,-0.3555660425173062,0.3555660425173062,1.170500554541026,1.6387007763574364,0,1,0
193,194,1.0,194,38,67,80,0,1967.521,64,1759.361,LESS,-525,1139,614,1,2,147,80,67,0,13.0,1.218630998876834,13.0,0.6984302957695783,-0.1256098877473213,-0.6434097789236753,-0.25928535726370594,0.0,-0.5072169069677779,-0.7001919503801813,-0.08717890036911517,0.08717890036911517,0.0,-0.5072169069677779,0,1,1
194,195,1.0,195,38,80,67,0,5436.005,64,1471.9979999999998,LESS,-1901,3344,1443,2,1,150,70,80,1,-13.0,-1.218630998876834,13.0,0.6984302957695783,-0.1256098877473213,2.1865408366479318,-0.19945027481823535,-0.3901668515136753,0.0,0.030443128277399246,-2.6697013311097506,2.6697013311097506,-0.5072169069677779,0.0,0,1,0
195,196,1.0,196,36,70,80,0,1555.0420000000001,74,1102.927,LESS,-306,808,502,1,2,232,110,122,1,10.0,0.9374084606744877,10.0,0.17460757394239457,0.38883333852157215,-0.9799531217675118,1.4360419786912946,1.170500554541026,1.6387007763574364,-0.7001919503801813,0.323847562081611,0.323847562081611,0.0,-0.3901668515136753,0,1,0
196,197,1.0,197,45,110,122,0,1991.723,74,1501.471,LESS,-379,951,572,2,1,225,110,115,1,12.0,1.1248901528093853,12.0,0.5238227218271837,0.38883333852157215,-0.6236632658078404,1.2964267863185297,1.170500554541026,1.3655839802978638,0.030443128277399246,0.18683874126470223,0.18683874126470223,1.6387007763574364,1.170500554541026,0,0,1
197,198,1.0,198,42,110,115,0,3401.665,74,1125.329,LESS,-680,1734,1054,2,2,222,110,112,1,5.0,0.46870423033724384,5.0,-0.6984302957695783,0.38883333852157215,0.52671431437424,1.2365917038730592,1.170500554541026,1.248533924843761,0.030443128277399246,-0.37808804045981176,0.37808804045981176,1.3655839802978638,1.170500554541026,1,1,1
198,199,1.0,199,41,110,112,1,4202.816,74,712.398,LESS,-1155,2248,1093,2,1,213,110,103,0,2.0,0.18748169213489754,2.0,-1.2222530175967619,0.38883333852157215,1.1803767690996496,1.0570864565366473,1.170500554541026,0.8973837584814532,0.030443128277399246,-1.269583792350656,1.269583792350656,1.248533924843761,1.170500554541026,1,0,1
199,200,1.0,200,53,110,103,1,2110.906,44,1689.99,LESS,-137,898,761,3,2,103,50,53,0,-7.0,-0.6561859224721414,7.0,-0.34921514788478913,-1.1544963402851083,-0.5264213571769599,-1.1368665664639415,-1.170500554541026,-1.0534504990869233,0.7610782069349799,0.641032366438564,0.641032366438564,0.8973837584814532,1.170500554541026,1,0,1
200,201,1.0,201,3,50,53,1,3496.366,84,432.92699999999996,MORE,604,1000,1604,3,2,90,50,40,1,3.0,0.28122253820234633,3.0,-1.0476454436543674,0.9032765647904656,0.603981256717133,-1.3961519237276474,-1.170500554541026,-1.5606674060547012,0.7610782069349799,2.031765739388281,2.031765739388281,-1.0534504990869233,-1.170500554541026,0,0,1
201,202,1.0,202,20,50,40,1,2849.513,44,1664.501,MORE,-320,1306,986,4,1,168,80,88,0,-10.0,-0.9374084606744877,10.0,0.17460757394239457,-1.1544963402851083,0.07621118612308066,0.1595602198545883,0.0,0.31213348121094026,1.4917132855925606,0.2975718978153545,0.2975718978153545,-1.5606674060547012,-1.170500554541026,1,1,0
202,203,1.0,203,25,80,88,1,1540.3929999999998,84,738.904,MORE,334,510,844,1,2,225,115,110,1,8.0,0.7499267685395902,8.0,-0.17460757394239457,0.9032765647904656,-0.9919053021920168,1.2964267863185297,1.3655839802978638,1.170500554541026,-0.7001919503801813,1.5250207856819065,1.5250207856819065,0.31213348121094026,0.0,0,1,1
203,204,1.0,204,42,115,110,0,2342.863,94,908.7689999999999,MORE,-770,1402,632,2,1,213,103,110,0,-5.0,-0.46870423033724384,5.0,-0.6984302957695783,1.417719791059359,-0.33716666984493154,1.0570864565366473,0.8973837584814532,1.170500554541026,0.030443128277399246,-0.5470030250286033,0.5470030250286033,1.170500554541026,1.3655839802978638,0,1,0
204,205,1.0,205,53,103,110,1,2502.521,74,987.566,MORE,-115,1119,1004,2,1,170,90,80,1,7.0,0.6561859224721414,7.0,-0.34921514788478913,0.38883333852157215,-0.20690103927522657,0.19945027481823535,0.3901668515136753,0.0,0.030443128277399246,0.6823226959998241,0.6823226959998241,1.170500554541026,0.8973837584814532,0,0,0
205,206,1.0,206,26,90,80,0,1799.6270000000002,74,1023.062,MORE,-456,994,538,2,1,152,80,72,1,-10.0,-0.9374084606744877,10.0,0.17460757394239457,0.38883333852157215,-0.7803951963714071,-0.1595602198545883,0.0,-0.31213348121094026,0.030443128277399246,0.04232258780029168,0.04232258780029168,0.0,0.3901668515136753,1,1,0
206,207,1.0,207,35,80,72,1,5352.23,74,1152.651,MORE,-1887,3068,1181,4,2,173,93,80,1,-8.0,-0.7499267685395902,8.0,-0.17460757394239457,0.38883333852157215,2.1181884634441017,0.25928535726370594,0.5072169069677779,0.0,1.4917132855925606,-2.6434256668434943,2.6434256668434943,-0.31213348121094026,0.0,1,1,0
207,208,1.0,208,28,93,80,0,2424.21,54,2050.051,MORE,-1289,1711,422,5,2,170,80,90,0,-13.0,-1.218630998876834,13.0,0.6984302957695783,-0.6400531140162148,-0.27079531200533824,0.19945027481823535,0.0,0.3901668515136753,2.2223483642501414,-1.5210794360419682,1.5210794360419682,0.0,0.5072169069677779,1,0,0
208,209,1.0,209,26,80,90,1,1269.404,94,2162.822,MORE,-180,628,448,2,1,168,88,80,1,10.0,0.9374084606744877,10.0,0.17460757394239457,1.417719791059359,-1.2130063617220979,0.1595602198545883,0.31213348121094026,0.0,0.030443128277399246,0.5603285404779191,0.5603285404779191,0.3901668515136753,0.0,0,0,1
209,210,1.0,210,25,88,80,0,2779.2740000000003,64,1320.7939999999999,MORE,133,1126,1259,3,2,150,80,70,1,-8.0,-0.7499267685395902,8.0,-0.17460757394239457,-0.1256098877473213,0.01890289198445075,-0.19945027481823535,0.0,-0.3901668515136753,0.7610782069349799,1.1477773201449386,1.1477773201449386,0.0,0.31213348121094026,0,0,1
210,211,1.0,211,36,80,70,0,2537.132,74,992.2589999999999,MORE,-993,1521,528,3,2,173,80,93,0,-10.0,-0.9374084606744877,10.0,0.17460757394239457,0.38883333852157215,-0.17866177948462394,0.25928535726370594,0.0,0.5072169069677779,0.7610782069349799,-0.9655368201268314,0.9655368201268314,-0.3901668515136753,0.0,1,1,0
211,212,1.0,212,28,80,93,1,2351.272,54,1543.057,MORE,-124,1085,961,2,1,162,82,80,1,13.0,1.218630998876834,13.0,0.6984302957695783,-0.6400531140162148,-0.3303057315426814,0.03989005496364707,0.07803337030273506,0.0,0.030443128277399246,0.665431197542945,0.665431197542945,0.5072169069677779,0.0,1,0,0
212,213,1.0,213,21,82,80,0,2358.716,64,1835.5910000000001,MORE,-366,1184,818,1,2,91,50,41,1,-2.0,-0.18748169213489754,2.0,-1.2222530175967619,-0.1256098877473213,-0.32423214078017104,-1.376206896245824,-1.170500554541026,-1.5216507209033339,-0.7001919503801813,0.21123757236908325,0.21123757236908325,0.0,0.07803337030273506,1,1,1
213,214,1.0,214,19,50,41,0,2684.724,94,777.5010000000001,MORE,-101,1193,1092,2,1,206,96,110,0,-9.0,-0.843667614607039,9.0,0.0,1.417719791059359,-0.05824084882631765,0.9174712641638826,0.6242669624218805,1.170500554541026,0.030443128277399246,0.7085983602660806,0.7085983602660806,-1.5216507209033339,-1.170500554541026,0,0,1
214,215,1.0,215,56,96,110,1,1983.477,54,1333.025,MORE,-140,884,744,3,2,165,80,85,0,14.0,1.3123718449442827,14.0,0.8730378697119728,-0.6400531140162148,-0.6303912117277302,0.09972513740911768,0.0,0.19508342575683765,0.7610782069349799,0.6354018669529375,0.6354018669529375,1.170500554541026,0.6242669624218805,0,1,0
215,216,1.0,216,23,80,85,1,4650.79,74,1294.437,MORE,-582,2200,1618,3,2,110,60,50,1,5.0,0.46870423033724384,5.0,-0.6984302957695783,0.38883333852157215,1.5458806310347417,-0.9972513740911768,-0.7803337030273506,-1.170500554541026,0.7610782069349799,-0.1941583905960165,0.1941583905960165,0.19508342575683765,0.0,0,1,1
216,217,1.0,217,10,60,50,0,3835.065,74,1112.861,MORE,-912,2014,1102,1,1,91,41,50,0,-10.0,-0.9374084606744877,10.0,0.17460757394239457,0.38883333852157215,0.8803271886987963,-1.376206896245824,-1.5216507209033339,-1.170500554541026,-0.7001919503801813,-0.8135133340149189,0.8135133340149189,-1.170500554541026,-0.7803337030273506,0,1,0
217,218,1.0,218,19,41,50,1,3849.2059999999997,74,1285.45,MORE,-1386,2306,920,2,1,206,110,96,1,9.0,0.843667614607039,9.0,0.0,0.38883333852157215,0.8918648897966819,0.9174712641638826,1.170500554541026,0.6242669624218805,0.030443128277399246,-1.703132252743888,1.703132252743888,-1.170500554541026,-1.5216507209033339,0,1,0
218,219,1.0,219,56,110,96,0,3243.343,94,856.525,MORE,-1334,2026,692,1,2,152,72,80,0,-14.0,-1.3123718449442827,14.0,0.8730378697119728,1.417719791059359,0.3975387317973769,-0.1595602198545883,-0.31213348121094026,0.0,-0.7001919503801813,-1.6055369283263639,1.6055369283263639,0.6242669624218805,1.170500554541026,1,0,1
219,220,1.0,220,35,72,80,1,1644.5839999999998,74,911.53,MORE,-436,954,518,2,1,99,49,50,0,8.0,0.7499267685395902,8.0,-0.17460757394239457,0.38883333852157215,-0.9068954291215281,-1.2166466763912356,-1.2095172396923934,-1.170500554541026,0.030443128277399246,0.07985925103780092,0.07985925103780092,0.0,-0.31213348121094026,0,1,0
220,221,1.0,221,11,49,50,1,1274.981,84,1153.684,MORE,126,452,578,4,1,93,43,50,0,1.0,0.09374084606744877,1.0,-1.3968605915391565,0.9032765647904656,-1.2084560640753326,-1.3363168412821769,-1.4436173506005987,-1.170500554541026,1.4917132855925606,1.1346394880118102,1.1346394880118102,-1.170500554541026,-1.2095172396923934,0,1,1
221,222,1.0,222,17,43,50,1,2589.055,84,1447.4779999999998,MORE,161,1026,1187,2,1,101,51,50,1,7.0,0.6561859224721414,7.0,-0.34921514788478913,0.9032765647904656,-0.13629758642150938,-1.1767566214275886,-1.1314838693896585,-1.170500554541026,0.030443128277399246,1.2003286486774514,1.2003286486774514,-1.170500554541026,-1.4436173506005987,1,0,0
222,223,1.0,223,1,51,50,0,2300.565,64,1864.0279999999998,MORE,-670,1314,644,1,1,222,112,110,1,-1.0,-0.09374084606744877,1.0,-1.3968605915391565,-0.1256098877473213,-0.37167778511530536,1.2365917038730592,1.248533924843761,1.170500554541026,-0.7001919503801813,-0.35931970884105713,0.35931970884105713,-1.170500554541026,-1.1314838693896585,0,1,1
223,224,1.0,224,41,112,110,0,2922.026,84,666.538,MORE,-1076,1636,560,1,2,90,40,50,0,-2.0,-0.18748169213489754,2.0,-1.2222530175967619,0.9032765647904656,0.13537484638126368,-1.3961519237276474,-1.5606674060547012,-1.170500554541026,-0.7001919503801813,-1.1213139725624948,1.1213139725624948,1.170500554541026,1.248533924843761,1,1,1
224,225,1.0,225,20,40,50,1,1135.847,64,1704.19,MORE,110,398,508,2,2,101,50,51,0,10.0,0.9374084606744877,10.0,0.17460757394239457,-0.1256098877473213,-1.321976077126262,-1.1767566214275886,-1.170500554541026,-1.1314838693896585,0.030443128277399246,1.104610157421803,1.104610157421803,-1.170500554541026,-1.5606674060547012,1,1,0
225,226,1.0,226,1,50,51,1,1991.672,74,1875.281,MORE,-155,913,758,2,1,165,85,80,1,1.0,0.09374084606744877,1.0,-1.3968605915391565,0.38883333852157215,-0.6237048769213395,0.09972513740911768,0.19508342575683765,0.0,0.030443128277399246,0.6072493695248057,0.6072493695248057,-1.1314838693896585,-1.170500554541026,1,1,0
226,227,1.0,227,23,85,80,0,1851.808,94,874.096,MORE,-629,1127,498,2,1,99,50,49,1,-5.0,-0.46870423033724384,5.0,-0.6984302957695783,1.417719791059359,-0.7378205000282378,-1.2166466763912356,-1.170500554541026,-1.2095172396923934,0.030443128277399246,-0.2823695492041632,0.2823695492041632,0.0,0.19508342575683765,0,1,1
227,228,1.0,228,11,50,49,1,1321.0339999999999,64,1625.473,MORE,-143,582,439,3,2,93,50,43,1,-1.0,-0.09374084606744877,1.0,-1.3968605915391565,-0.1256098877473213,-1.1708812285855568,-1.3363168412821769,-1.170500554541026,-1.4436173506005987,0.7610782069349799,0.6297713674673112,0.6297713674673112,-1.2095172396923934,-1.170500554541026,0,1,1
228,229,1.0,229,17,50,43,1,4003.1240000000003,84,710.547,MORE,-976,2230,1254,4,1,162,80,82,0,-7.0,-0.6561859224721414,7.0,-0.34921514788478913,0.9032765647904656,1.0174472303372608,0.03989005496364707,0.0,0.07803337030273506,1.4917132855925606,-0.9336306563749485,0.9336306563749485,-1.4436173506005987,-1.170500554541026,0,1,1
229,230,1.0,230,21,80,82,0,1954.281,64,1126.757,MORE,-654,1206,552,2,1,110,50,60,0,2.0,0.18748169213489754,2.0,-1.2222530175967619,-0.1256098877473213,-0.6542123503497417,-0.9972513740911768,-1.170500554541026,-0.7803337030273506,0.030443128277399246,-0.32929037825104973,0.32929037825104973,0.07803337030273506,0.0,0,0,1
230,231,1.0,231,10,50,60,1,2030.128,84,954.748,MORE,-98,914,816,2,1,103,53,50,1,10.0,0.9374084606744877,10.0,0.17460757394239457,0.9032765647904656,-0.5923284655345719,-1.1368665664639415,-1.0534504990869233,-1.170500554541026,0.030443128277399246,0.714228859751707,0.714228859751707,-0.7803337030273506,-1.170500554541026,0,1,1
231,232,1.0,232,3,53,50,0,1964.125,74,876.316,MORE,-754,1218,464,2,1,232,122,110,1,-3.0,-0.28122253820234633,3.0,-1.0476454436543674,0.38883333852157215,-0.6461805895402102,1.4360419786912946,1.6387007763574364,1.170500554541026,0.030443128277399246,-0.5169736944385959,0.5169736944385959,-1.170500554541026,-1.0534504990869233,0,1,0
232,233,1.0,233,45,122,110,0,2014.069,34,984.045,MORE,-683,1193,510,3,2,147,67,80,0,-12.0,-1.1248901528093853,12.0,0.5238227218271837,-1.6689395665540017,-0.6054310708617016,-0.25928535726370594,-0.5072169069677779,0.0,0.7610782069349799,-0.38371853994543814,0.38371853994543814,1.170500554541026,1.6387007763574364,1,1,1
233,234,1.0,234,38,67,80,1,1598.829,64,1315.51,MORE,-25,694,669,2,1,147,80,67,1,13.0,1.218630998876834,13.0,0.6984302957695783,-0.1256098877473213,-0.9442271251637985,-0.25928535726370594,0.0,-0.5072169069677779,0.030443128277399246,0.8512376805686157,0.8512376805686157,0.0,-0.5072169069677779,1,1,0
234,235,1.0,235,38,80,67,1,1453.6029999999998,64,1718.6129999999998,MORE,150,524,674,2,1,150,70,80,0,-13.0,-1.218630998876834,13.0,0.6984302957695783,-0.1256098877473213,-1.0627176265174167,-0.19945027481823535,-0.3901668515136753,0.0,0.030443128277399246,1.1796834838968213,1.1796834838968213,-0.5072169069677779,0.0,0,1,1
235,236,1.0,236,36,70,80,1,1977.727,54,1440.858,MORE,-795,1279,484,3,2,232,110,122,0,10.0,0.9374084606744877,10.0,0.17460757394239457,-0.6400531140162148,-0.6350826607987181,1.4360419786912946,1.170500554541026,1.6387007763574364,0.7610782069349799,-0.5939238540754899,0.5939238540754899,0.0,-0.3901668515136753,0,1,1
236,237,1.0,237,45,110,122,1,1623.8970000000002,84,1477.973,MORE,99,576,675,2,1,225,110,115,0,12.0,1.1248901528093853,12.0,0.5238227218271837,0.9032765647904656,-0.923774039022663,1.2964267863185297,1.170500554541026,1.3655839802978638,0.030443128277399246,1.0839649926411727,1.0839649926411727,1.6387007763574364,1.170500554541026,1,1,0
237,238,1.0,238,42,110,115,1,2901.364,64,2333.854,MORE,-900,1714,814,2,1,222,110,112,0,5.0,0.46870423033724384,5.0,-0.6984302957695783,-0.1256098877473213,0.11851663408478488,1.2365917038730592,1.170500554541026,1.248533924843761,0.030443128277399246,-0.7909913360724133,0.7909913360724133,1.3655839802978638,1.170500554541026,1,1,0
238,239,1.0,239,41,110,112,1,1565.164,74,810.788,MORE,-87,733,646,3,2,213,110,103,1,2.0,0.18748169213489754,2.0,-1.2222530175967619,0.38883333852157215,-0.9716945395942003,1.0570864565366473,1.170500554541026,0.8973837584814532,0.7610782069349799,0.7348740245323371,0.7348740245323371,1.248533924843761,1.170500554541026,1,1,0
239,240,1.0,240,53,110,103,1,1559.884,94,647.066,MORE,5,688,693,2,2,241,110,131,0,-7.0,-0.6561859224721414,7.0,-0.34921514788478913,1.417719791059359,-0.9760025136976467,1.6155472260277064,1.170500554541026,1.9898509427197442,0.030443128277399246,0.9075426754248795,0.9075426754248795,0.8973837584814532,1.170500554541026,0,1,0
240,241,2.0,1,49,110,131,1,6228.547,44,2706.716,MORE,-712,2576,1864,0,0,97,47,50,0,21.0,1.9685577674164243,21.0,2.095290887308735,-0.2383866467636475,-0.38270154806385714,-1.2565367313548828,-1.2875506099951286,-1.170500554541026,-0.973334492921093,0.1620264560992014,0.1620264560992014,1.9898509427197442,1.170500554541026,0,0,1
241,242,2.0,2,13,47,50,1,6635.751,54,1508.9879999999998,MORE,-384,2964,2580,0,0,94,50,44,1,3.0,0.28122253820234633,3.0,-1.0476454436543674,0.38620718755158556,-0.33770331662919295,-1.3163718138003533,-1.170500554541026,-1.4046006654492311,-0.973334492921093,0.24721923859492087,0.24721923859492087,-1.170500554541026,-1.2875506099951286,0,0,0
242,243,2.0,3,16,50,44,0,4766.744000000001,64,1664.5420000000001,MORE,-2421,3202,781,0,0,107,57,50,1,-6.0,-0.5624450764046927,6.0,-0.5238227218271837,1.0108010218668186,-0.544238639315137,-1.0570864565366473,-0.8973837584814532,-1.170500554541026,-0.973334492921093,-0.281859108794654,0.281859108794654,-1.4046006654492311,-1.170500554541026,1,1,0
243,244,2.0,4,7,57,50,0,10945.402,44,3357.675,MORE,-3463,6267,2804,0,0,92,42,50,0,-7.0,-0.6561859224721414,7.0,-0.34921514788478913,-0.2383866467636475,0.13853629079271718,-1.3562618687640005,-1.4826340357519663,-1.170500554541026,-0.973334492921093,-0.5525020336743481,0.5525020336743481,-1.170500554541026,-0.8973837584814532,1,1,0
244,245,2.0,5,18,42,50,1,5673.265,54,1448.471,MORE,-3284,4022,738,0,0,218,108,110,0,8.0,0.7499267685395902,8.0,-0.17460757394239457,0.38620718755158556,-0.4440631946771102,1.156811593945765,1.092467184238291,1.170500554541026,-0.973334492921093,-0.5060096310318671,0.5060096310318671,-1.170500554541026,-1.4826340357519663,0,1,1
245,246,2.0,6,51,108,110,1,46657.359000000004,44,2199.183,MORE,18713,3150,21863,0,0,158,78,80,0,2.0,0.18748169213489754,2.0,-1.2222530175967619,-0.2383866467636475,4.084899553606373,-0.03989005496364707,-0.07803337030273506,0.0,-0.973334492921093,5.207361212133806,5.207361212133806,1.170500554541026,1.092467184238291,1,1,1
246,247,2.0,7,31,78,80,0,7750.691,54,1752.105,MORE,-2316,3852,1536,0,0,202,110,92,1,2.0,0.18748169213489754,2.0,-1.2222530175967619,0.38620718755158556,-0.2144964518740227,0.8376911542365885,1.170500554541026,0.4682002218164104,-0.973334492921093,-0.25458702903230473,0.25458702903230473,0.0,-0.07803337030273506,1,1,1
247,248,2.0,8,58,110,92,0,9776.843,44,1876.795,MORE,-860,4390,3530,0,0,98,50,48,1,-18.0,-1.687335229214078,18.0,1.571468165481551,-0.2383866467636475,0.009404238241515333,-1.2365917038730592,-1.170500554541026,-1.248533924843761,-0.973334492921093,0.12358581033893774,0.12358581033893774,0.4682002218164104,1.170500554541026,1,1,1
248,249,2.0,9,12,50,48,1,7758.235,54,1338.013,MORE,816,2096,2912,0,0,211,110,101,1,-2.0,-0.18748169213489754,2.0,-1.2222530175967619,0.38620718755158556,-0.2136627993118104,1.0171964015730004,1.170500554541026,0.8193503881787182,-0.973334492921093,0.5589001501646262,0.5589001501646262,-1.248533924843761,-1.170500554541026,1,1,1
249,250,2.0,10,54,110,101,0,44526.337,34,1508.46,MORE,-24540,27488,2948,0,0,96,46,50,0,-9.0,-0.843667614607039,9.0,0.0,-0.8629804810788805,3.84941016463092,-1.2764817588367063,-1.3265672951464962,-1.170500554541026,-0.973334492921093,-6.026917511303248,6.026917511303248,0.8193503881787182,1.170500554541026,1,0,1
250,251,2.0,11,14,46,50,1,10806.455,44,1927.361,MORE,-1536,4480,2944,0,0,163,80,83,0,4.0,0.3749633842697951,4.0,-0.8730378697119728,-0.2383866467636475,0.12318190020924483,0.05983508244547061,0.0,0.1170500554541026,-0.973334492921093,-0.05199443651199628,0.05199443651199628,-1.170500554541026,-1.3265672951464962,1,1,1
251,252,2.0,12,22,80,83,1,5936.281,44,1562.155,MORE,-1376,2684,1308,0,0,106,50,56,0,3.0,0.28122253820234633,3.0,-1.0476454436543674,-0.2383866467636475,-0.41499851250547243,-1.077031484018471,-1.170500554541026,-0.9364004436328208,-0.973334492921093,-0.010436981636035566,0.010436981636035566,0.1170500554541026,0.0,1,0,0
252,253,2.0,13,6,50,56,0,22118.048,34,1101.606,MORE,9302,2232,11534,0,0,97,50,47,1,6.0,0.5624450764046927,6.0,-0.5238227218271837,-0.8629804810788805,1.3731737463323825,-1.2565367313548828,-1.170500554541026,-1.2875506099951286,-0.973334492921093,2.7630036631483925,2.7630036631483925,-0.9364004436328208,-1.170500554541026,0,0,0
253,254,2.0,14,13,50,47,0,7867.571999999999,44,3369.01,MORE,-1647,3964,2317,0,0,234,110,124,0,-3.0,-0.28122253820234633,3.0,-1.0476454436543674,-0.2383866467636475,-0.2015804729339461,1.4759320336549415,1.170500554541026,1.7167341466601715,-0.973334492921093,-0.08082492083219403,0.08082492083219403,-1.2875506099951286,-1.170500554541026,0,0,0
254,255,2.0,15,46,110,124,1,24336.379,54,1630.879,MORE,-9382,12596,3214,0,0,171,91,80,1,14.0,1.3123718449442827,14.0,0.8730378697119728,0.38620718755158556,1.6183112492466218,0.21939530230005888,0.4291835366650429,0.0,-0.973334492921093,-2.08986812999192,2.08986812999192,1.7167341466601715,1.170500554541026,0,1,0
255,256,2.0,16,27,91,80,0,12568.18,64,2302.5460000000003,MORE,-5764,7192,1428,0,0,144,64,80,0,-11.0,-1.0311493067419364,11.0,0.34921514788478913,1.0108010218668186,0.3178619850665488,-0.3191204397091766,-0.6242669624218805,0.0,-0.973334492921093,-1.150150181609258,1.150150181609258,0.0,0.4291835366650429,0,1,0
256,257,2.0,17,40,64,80,1,7216.420999999999,54,2637.44,MORE,100,2618,2718,0,0,163,83,80,1,16.0,1.4998535370791803,16.0,1.2222530175967619,0.38620718755158556,-0.27353615951097626,0.05983508244547061,0.1170500554541026,0.0,-0.973334492921093,0.372930539594702,0.372930539594702,0.0,-0.6242669624218805,1,0,1
257,258,2.0,18,22,83,80,0,24450.946,14,2532.688,MORE,7406,2946,10352,0,0,211,101,110,0,-3.0,-0.28122253820234633,3.0,-1.0476454436543674,-2.1121681497093467,1.6309715187448957,1.0171964015730004,0.8193503881787182,1.170500554541026,-0.973334492921093,2.270547822868258,2.270547822868258,0.0,0.1170500554541026,0,1,0
258,259,2.0,19,54,101,110,1,20652.52,64,1312.765,MORE,-10216,12034,1818,0,0,106,56,50,1,9.0,0.843667614607039,9.0,0.0,1.0108010218668186,1.2112250225527037,-1.077031484018471,-0.9364004436328208,-1.170500554541026,-0.973334492921093,-2.306486363532865,2.306486363532865,1.170500554541026,0.8193503881787182,0,1,0
259,260,2.0,20,6,56,50,0,9962.632,54,2276.246,MORE,-1710,3966,2256,0,0,92,50,42,1,-6.0,-0.5624450764046927,6.0,-0.5238227218271837,0.38620718755158556,0.029934921682775128,-1.3562618687640005,-1.170500554541026,-1.4826340357519663,-0.973334492921093,-0.09718816868960356,0.09718816868960356,-1.170500554541026,-0.9364004436328208,0,1,1
260,261,2.0,21,18,50,42,0,15264.738000000001,54,1635.842,MORE,-1076,4796,3720,0,0,227,110,117,0,-8.0,-0.7499267685395902,8.0,-0.17460757394239457,0.38620718755158556,0.6158461427884643,1.3363168412821769,1.170500554541026,1.4436173506005987,-0.973334492921093,0.06748324625639077,0.06748324625639077,-1.4826340357519663,-1.170500554541026,1,1,1
261,262,2.0,22,43,110,117,1,14577.04,44,2014.369,MORE,-3946,6904,2958,0,0,157,77,80,0,7.0,0.6561859224721414,7.0,-0.34921514788478913,-0.2383866467636475,0.5398518162073022,-0.05983508244547061,-0.1170500554541026,0.0,-0.973334492921093,-0.6779536005811545,0.6779536005811545,1.4436173506005987,1.170500554541026,0,1,0
262,263,2.0,23,32,77,80,0,10502.538,44,1051.856,MORE,-2756,4920,2164,0,0,171,80,91,0,3.0,0.28122253820234633,3.0,-1.0476454436543674,-0.2383866467636475,0.08959743762309935,0.21939530230005888,0.0,0.4291835366650429,-0.973334492921093,-0.3688700299411967,0.3688700299411967,0.0,-0.1170500554541026,1,1,0
263,264,2.0,24,27,80,91,1,8938.346,44,1513.951,MORE,-1917,4144,2227,0,0,94,44,50,0,11.0,1.0311493067419364,11.0,0.34921514788478913,-0.2383866467636475,-0.08325418864837668,-1.3163718138003533,-1.4046006654492311,-1.170500554541026,-0.973334492921093,-0.15095312593537774,0.15095312593537774,0.4291835366650429,0.0,0,0,0
264,265,2.0,25,16,44,50,1,8371.705,34,1023.203,MORE,-818,3020,2202,0,0,107,50,57,0,6.0,0.5624450764046927,6.0,-0.5238227218271837,-0.8629804810788805,-0.1458710658361486,-1.0570864565366473,-1.170500554541026,-0.8973837584814532,-0.973334492921093,0.13449464224387742,0.13449464224387742,-1.170500554541026,-1.4046006654492311,1,0,0
265,266,2.0,26,7,50,57,0,8634.889000000001,54,2300.298,MORE,877,2678,3555,0,0,96,50,46,1,7.0,0.6561859224721414,7.0,-0.34921514788478913,0.38620718755158556,-0.11678781876121641,-1.2764817588367063,-1.170500554541026,-1.3265672951464962,-0.973334492921093,0.5747439298360862,0.5747439298360862,-0.8973837584814532,-1.170500554541026,0,0,1
266,267,2.0,27,14,50,46,0,9256.349,54,2087.074,MORE,-3825,5374,1549,0,0,218,110,108,1,-4.0,-0.3749633842697951,4.0,-0.8730378697119728,0.38620718755158556,-0.04811314732531131,1.156811593945765,1.170500554541026,1.092467184238291,-0.973334492921093,-0.6465257753312093,0.6465257753312093,-1.3265672951464962,-1.170500554541026,1,1,0
267,268,2.0,28,51,110,108,0,98982.33,54,1930.567,MORE,-38340,41754,3414,0,0,243,133,110,1,-2.0,-0.18748169213489754,2.0,-1.2222530175967619,0.38620718755158556,9.867090187465783,1.6554372809913533,2.0678843130224793,1.170500554541026,-0.973334492921093,-9.61124799435486,9.61124799435486,1.092467184238291,1.170500554541026,0,1,0
268,269,2.0,29,50,133,110,0,71123.695,44,3266.077,MORE,-24192,30474,6282,0,0,241,131,110,1,-23.0,-2.1560394595513217,23.0,2.4445060351935237,-0.2383866467636475,6.7885612310119345,1.6155472260277064,1.9898509427197442,1.170500554541026,-0.973334492921093,-5.936530046948033,5.936530046948033,1.170500554541026,2.0678843130224793,1,0,1
269,270,2.0,30,49,131,110,1,14323.976999999999,64,1098.639,MORE,-3019,5912,2893,0,0,236,126,110,1,-21.0,-1.9685577674164243,21.0,2.095290887308735,1.0108010218668186,0.5118869940504707,1.5158220886185887,1.7947675169629065,1.170500554541026,-0.973334492921093,-0.43718009639355715,0.43718009639355715,1.170500554541026,1.9898509427197442,1,1,1
270,271,2.0,31,47,126,110,1,11246.8,54,1615.594,MORE,-5059,7190,2131,0,0,243,110,133,0,-16.0,-1.4998535370791803,16.0,1.2222530175967619,0.38620718755158556,0.17184239033482593,1.6554372809913533,1.170500554541026,2.0678843130224793,-0.973334492921093,-0.9670376460620562,0.9670376460620562,1.170500554541026,1.7947675169629065,0,1,1
271,272,2.0,32,50,110,133,1,5729.581999999999,64,903.808,MORE,-946,2656,1710,0,0,236,110,126,0,23.0,2.1560394595513217,23.0,2.4445060351935237,1.0108010218668186,-0.4378398633746036,1.5158220886185887,1.170500554541026,1.7947675169629065,-0.973334492921093,0.10124867834310886,0.10124867834310886,2.0678843130224793,1.170500554541026,1,0,0
272,273,2.0,33,47,110,126,1,15507.063,54,2221.0229999999997,MORE,1709,4156,5865,0,0,98,48,50,0,16.0,1.4998535370791803,16.0,1.2222530175967619,0.38620718755158556,0.6426243582097396,-1.2365917038730592,-1.248533924843761,-1.170500554541026,-0.973334492921093,0.790842695191082,0.790842695191082,1.7947675169629065,1.170500554541026,1,1,0
273,274,2.0,34,12,48,50,0,9584.002,54,1453.896,MORE,-2870,4780,1910,0,0,157,80,77,1,2.0,0.18748169213489754,2.0,-1.2222530175967619,0.38620718755158556,-0.011905729116595275,-0.05983508244547061,0.0,-0.1170500554541026,-0.973334492921093,-0.3984797165403187,0.3984797165403187,-1.170500554541026,-1.248533924843761,1,1,0
274,275,2.0,35,32,80,77,1,15060.043,44,1704.1870000000001,MORE,-650,5714,5064,0,0,227,117,110,1,-3.0,-0.28122253820234633,3.0,-1.0476454436543674,-0.2383866467636475,0.593226244694343,1.3363168412821769,1.4436173506005987,1.170500554541026,-0.973334492921093,0.17812996986363616,0.17812996986363616,-0.1170500554541026,0.0,0,0,1
275,276,2.0,36,43,117,110,1,13755.941,54,1722.0520000000001,MORE,-700,5400,4700,0,0,144,80,64,1,-7.0,-0.6561859224721414,7.0,-0.34921514788478913,0.38620718755158556,0.44911596186213054,-0.3191204397091766,0.0,-0.6242669624218805,-0.973334492921093,0.16514326521489844,0.16514326521489844,1.170500554541026,1.4436173506005987,0,1,0
276,277,2.0,37,40,80,64,0,4962.179,74,1493.033,MORE,-992,2306,1314,0,0,158,80,78,1,-16.0,-1.4998535370791803,16.0,1.2222530175967619,1.6353948561820517,-0.5226420210097336,-0.03989005496364707,0.0,-0.07803337030273506,-0.973334492921093,0.08930091006627015,0.08930091006627015,-0.6242669624218805,0.0,0,1,0
277,278,2.0,38,31,80,78,1,7058.905,44,1628.685,MORE,-1529,3130,1601,0,0,234,124,110,1,-2.0,-0.18748169213489754,2.0,-1.2222530175967619,-0.2383866467636475,-0.29094252443534463,1.4759320336549415,1.7167341466601715,1.170500554541026,-0.973334492921093,-0.050176297861172996,0.050176297861172996,-0.07803337030273506,0.0,1,0,1
278,279,2.0,39,46,124,110,1,6745.102,54,2401.298,MORE,-439,2616,2177,0,0,202,92,110,0,-14.0,-1.3123718449442827,14.0,0.8730378697119728,0.38620718755158556,-0.3256194431760542,0.8376911542365885,0.4682002218164104,1.170500554541026,-0.973334492921093,0.23293386348130937,0.23293386348130937,1.170500554541026,1.7167341466601715,1,1,0
279,280,2.0,40,58,92,110,1,5223.5109999999995,74,2397.822,MORE,-945,2599,1654,0,0,241,110,131,1,18.0,1.687335229214078,18.0,1.571468165481551,1.6353948561820517,-0.493763429892545,1.6155472260277064,1.170500554541026,1.9898509427197442,-0.973334492921093,0.1015084124360836,0.1015084124360836,1.170500554541026,0.4682002218164104,1,1,1
280,281,2.0,41,49,110,131,0,4393.264,54,1958.711,LESS,-525,2212,1687,0,0,97,47,50,1,21.0,1.9685577674164243,21.0,2.095290887308735,0.38620718755158556,-0.5855101874242381,-1.2565367313548828,-1.2875506099951286,-1.170500554541026,-0.973334492921093,0.21059673148548047,0.21059673148548047,1.9898509427197442,1.170500554541026,0,1,0
281,282,2.0,42,13,47,50,1,9018.968,44,2451.178,LESS,583,3406,3989,0,2,94,50,44,0,3.0,0.28122253820234633,3.0,-1.0476454436543674,-0.2383866467636475,-0.07434502416392774,-1.3163718138003533,-1.170500554541026,-1.4046006654492311,-0.973334492921093,0.49838210650150844,0.49838210650150844,-1.170500554541026,-1.2875506099951286,0,0,1
282,283,2.0,43,16,50,44,1,2271.286,64,1742.9660000000001,LESS,-219,1139,920,1,2,107,57,50,0,-6.0,-0.5624450764046927,6.0,-0.5238227218271837,1.0108010218668186,-0.8200001657723527,-1.0570864565366473,-0.8973837584814532,-1.170500554541026,-0.6888030942596286,0.29007536393575534,0.29007536393575534,-1.4046006654492311,-1.170500554541026,1,1,0
283,284,2.0,44,7,57,50,0,13824.456,34,2131.072,LESS,1031,5471,6502,1,2,92,42,50,1,-7.0,-0.6561859224721414,7.0,-0.34921514788478913,-0.8629804810788805,0.45668723775025044,-1.3562618687640005,-1.4826340357519663,-1.170500554541026,-0.6888030942596286,0.6147429801541985,0.6147429801541985,-1.170500554541026,-0.8973837584814532,1,1,0
284,285,2.0,45,18,42,50,0,2308.854,74,932.459,LESS,-752,1288,536,2,1,218,108,110,1,8.0,0.7499267685395902,8.0,-0.17460757394239457,1.6353948561820517,-0.8158486997785573,1.156811593945765,1.092467184238291,1.170500554541026,-0.4042716955981641,0.15163709238021122,0.15163709238021122,-1.170500554541026,-1.4826340357519663,0,1,0
285,286,2.0,46,51,108,110,0,6735.222,24,2393.238,LESS,-1400,3492,2092,1,2,158,78,80,1,2.0,0.18748169213489754,2.0,-1.2222530175967619,-1.4875743153941137,-0.3267112362983577,-0.03989005496364707,-0.07803337030273506,0.0,-0.6888030942596286,-0.016670599867429674,0.016670599867429674,1.170500554541026,1.092467184238291,0,0,0
286,287,2.0,47,31,78,80,0,4220.918,54,1672.646,LESS,-999,2365,1366,0,2,202,110,92,0,2.0,0.18748169213489754,2.0,-1.2222530175967619,0.38620718755158556,-0.6045553470858295,0.8376911542365885,1.170500554541026,0.4682002218164104,-0.973334492921093,0.08748277141544687,0.08748277141544687,0.0,-0.07803337030273506,1,1,0
287,288,2.0,48,58,110,92,1,4542.710999999999,64,1656.1029999999998,LESS,-129,1768,1639,1,2,98,50,48,0,-18.0,-1.687335229214078,18.0,1.571468165481551,1.0108010218668186,-0.5689954903848766,-1.2365917038730592,-1.170500554541026,-1.248533924843761,-0.6888030942596286,0.31345143230348327,0.31345143230348327,0.4682002218164104,1.170500554541026,0,0,0
288,289,2.0,49,12,50,48,1,10213.207,64,2050.486,LESS,-2640,5624,2984,1,2,211,110,101,0,-2.0,-0.18748169213489754,2.0,-1.2222530175967619,1.0108010218668186,0.05762480646224927,1.0171964015730004,1.170500554541026,0.8193503881787182,-0.6888030942596286,-0.3387408751561252,0.3387408751561252,-1.248533924843761,-1.170500554541026,0,1,0
289,290,2.0,50,54,110,101,0,12842.266000000001,34,2003.719,LESS,-480,5570,5090,1,2,96,46,50,1,-9.0,-0.843667614607039,9.0,0.0,-0.8629804810788805,0.3481499617588242,-1.2764817588367063,-1.3265672951464962,-1.170500554541026,-0.6888030942596286,0.22228476566934444,0.22228476566934444,0.8193503881787182,1.170500554541026,1,0,0
290,291,2.0,51,14,46,50,0,5697.236,64,2140.884,LESS,-880,2967,2087,0,1,163,80,83,1,4.0,0.3749633842697951,4.0,-0.8730378697119728,1.0108010218668186,-0.4414142702910032,0.05983508244547061,0.0,0.1170500554541026,-0.973334492921093,0.11839112847944265,0.11839112847944265,-1.170500554541026,-1.3265672951464962,0,1,1
291,292,2.0,52,22,80,83,1,9507.452,44,2118.243,LESS,-1097,4541,3444,1,2,106,50,56,1,3.0,0.28122253820234633,3.0,-1.0476454436543674,-0.2383866467636475,-0.020364915706912623,-1.077031484018471,-1.170500554541026,-0.9364004436328208,-0.6888030942596286,0.06202883030392093,0.06202883030392093,0.1170500554541026,0.0,1,1,1
292,293,2.0,53,6,50,56,0,2202.626,74,1487.098,LESS,-551,1099,548,1,2,97,50,47,0,6.0,0.5624450764046927,6.0,-0.5238227218271837,1.6353948561820517,-0.8275874649401016,-1.2565367313548828,-1.170500554541026,-1.2875506099951286,-0.6888030942596286,0.20384364506813688,0.20384364506813688,-0.9364004436328208,-1.170500554541026,0,1,0
293,294,2.0,54,13,50,47,0,10523.383,34,1958.964,LESS,-1734,3903,2169,1,2,234,110,124,1,-3.0,-0.28122253820234633,3.0,-1.0476454436543674,-0.8629804810788805,0.09190092220148155,1.4759320336549415,1.170500554541026,1.7167341466601715,-0.6888030942596286,-0.10342178692099767,0.10342178692099767,-1.2875506099951286,-1.170500554541026,0,0,1
294,295,2.0,55,46,110,124,0,5659.319,54,1844.987,LESS,-957,2671,1714,1,2,171,91,80,0,14.0,1.3123718449442827,14.0,0.8730378697119728,0.38620718755158556,-0.44560430266128476,0.21939530230005888,0.4291835366650429,0.0,-0.6888030942596286,0.09839160332038656,0.09839160332038656,1.7167341466601715,1.170500554541026,0,1,1
295,296,2.0,56,27,91,80,0,11711.122,34,1805.0810000000001,LESS,1212,3890,5102,0,2,144,64,80,1,-11.0,-1.0311493067419364,11.0,0.34921514788478913,-0.8629804810788805,0.22315246787877466,-0.3191204397091766,-0.6242669624218805,0.0,-0.973334492921093,0.661754850982629,0.661754850982629,0.0,0.4291835366650429,0,1,0
296,297,2.0,57,40,64,80,0,4957.49,74,1107.567,LESS,-1503,2617,1114,1,2,163,83,80,0,16.0,1.4998535370791803,16.0,1.2222530175967619,1.6353948561820517,-0.5231601807213208,0.05983508244547061,0.1170500554541026,0.0,-0.6888030942596286,-0.043423211443829386,0.043423211443829386,0.0,-0.6242669624218805,1,0,1
297,298,2.0,58,22,83,80,1,4295.431,54,1443.805,LESS,-231,1914,1683,1,2,211,101,110,1,-3.0,-0.28122253820234633,3.0,-1.0476454436543674,0.38620718755158556,-0.5963212599479548,1.0171964015730004,0.8193503881787182,1.170500554541026,-0.6888030942596286,0.2869585548200583,0.2869585548200583,0.0,0.1170500554541026,1,1,1
298,299,2.0,59,54,101,110,0,3120.0029999999997,64,1850.1689999999999,LESS,-1383,2069,686,0,2,106,56,50,0,9.0,0.843667614607039,9.0,0.0,1.0108010218668186,-0.7262123739320617,-1.077031484018471,-0.9364004436328208,-1.170500554541026,-0.973334492921093,-0.012255120286858847,0.012255120286858847,1.170500554541026,0.8193503881787182,0,1,0
299,300,2.0,60,6,56,50,1,6435.686,54,2238.014,LESS,-64,2624,2560,0,2,92,50,42,0,-6.0,-0.5624450764046927,6.0,-0.5238227218271837,0.38620718755158556,-0.3598115748289555,-1.3562618687640005,-1.170500554541026,-1.4826340357519663,-0.973334492921093,0.33033414834684227,0.33033414834684227,-1.170500554541026,-0.9364004436328208,1,0,1
300,301,2.0,61,18,50,42,1,4288.92,54,3228.427,LESS,-147,1660,1513,0,2,227,110,117,1,-8.0,-0.7499267685395902,8.0,-0.17460757394239457,0.38620718755158556,-0.5970407604559829,1.3363168412821769,1.170500554541026,1.4436173506005987,-0.973334492921093,0.30877621862993765,0.30877621862993765,-1.4826340357519663,-1.170500554541026,1,1,1
301,302,2.0,62,43,110,117,0,9699.076,74,1452.641,LESS,-3782,5984,2202,0,2,157,77,80,1,7.0,0.6561859224721414,7.0,-0.34921514788478913,1.6353948561820517,0.0008105666076915104,-0.05983508244547061,-0.1170500554541026,0.0,-0.973334492921093,-0.6353572093332948,0.6353572093332948,1.4436173506005987,1.170500554541026,0,0,1
302,303,2.0,63,32,77,80,0,12993.588,44,1630.684,LESS,-886,5500,4614,0,2,171,80,91,1,3.0,0.28122253820234633,3.0,-1.0476454436543674,-0.2383866467636475,0.36487185637959474,0.21939530230005888,0.0,0.4291835366650429,-0.973334492921093,0.11683272392159412,0.11683272392159412,0.0,-0.1170500554541026,1,0,0
303,304,2.0,64,27,80,91,0,6368.911,74,1303.266,LESS,-608,3056,2448,1,2,94,44,50,1,11.0,1.0311493067419364,11.0,0.34921514788478913,1.6353948561820517,-0.36719057136152805,-1.3163718138003533,-1.4046006654492311,-1.170500554541026,-0.6888030942596286,0.18903880176857585,0.18903880176857585,0.4291835366650429,0.0,0,1,1
304,305,2.0,65,16,44,50,0,5931.459,74,1220.198,LESS,-781,2973,2192,0,2,107,50,57,1,6.0,0.5624450764046927,6.0,-0.5238227218271837,1.6353948561820517,-0.41553136943216756,-1.0570864565366473,-1.170500554541026,-0.8973837584814532,-0.973334492921093,0.14410480368394335,0.14410480368394335,-1.170500554541026,-1.4046006654492311,1,0,0
305,306,2.0,66,7,50,57,0,13766.499,34,1932.3020000000001,LESS,-840,5368,4528,1,2,96,50,46,0,7.0,0.6561859224721414,7.0,-0.34921514788478913,-0.8629804810788805,0.4502826776298714,-1.2764817588367063,-1.170500554541026,-1.3265672951464962,-0.6888030942596286,0.12878049219843282,0.12878049219843282,-0.8973837584814532,-1.170500554541026,1,0,1
