parcode,trial,rt,choice,item_left,item_right
1,40,1734.2839999999999,1,110,131
1,41,6555.37,-1,47,50
1,42,3174.566,-1,50,44
1,43,2877.579,1,57,50
1,44,1806.31,1,42,50
1,45,3636.816,-1,108,110
1,46,3650.2659999999996,1,78,80
1,47,3078.223,-1,110,92
1,48,1259.268,1,50,48
1,49,3440.738,-1,110,101
1,50,5698.026999999999,1,46,50
1,51,8224.466999999999,1,80,83
1,52,2626.1679999999997,1,50,56
1,53,1991.4129999999998,-1,50,47
1,54,1671.149,1,110,124
1,55,2607.607,-1,91,80
1,56,1527.826,1,64,80
1,57,5043.16,-1,83,80
1,58,2267.665,1,101,110
1,59,4499.543,-1,56,50
1,60,5571.061,-1,50,42
1,61,2045.641,1,110,117
1,62,1402.112,1,77,80
1,63,2736.625,1,80,91
1,64,2065.604,1,44,50
1,65,3058.203,1,50,57
1,66,1613.454,1,50,46
1,67,1931.4820000000002,1,110,108
1,68,4895.517,-1,133,110
1,69,3197.86,1,131,110
1,70,2000.6879999999999,1,126,110
1,71,1921.251,1,110,133
1,72,2050.4970000000008,1,110,126
1,73,2219.756,1,48,50
1,74,1635.473,1,80,77
1,75,5608.432,-1,117,110
1,76,4443.018,-1,80,64
1,77,2620.927,1,80,78
1,78,1725.9029999999998,1,124,110
1,79,3225.23,1,92,110
1,120,1686.53,-1,128,110
1,121,2010.5320000000002,1,50,58
1,122,2244.929,-1,54,50
1,123,2092.94,-1,80,69
1,124,1361.319,1,105,110
1,125,1596.589,1,55,50
1,126,2850.1209999999996,-1,96,80
1,127,1380.8970000000006,1,80,75
1,128,1391.672,1,110,128
1,129,2101.903,-1,59,50
1,130,1582.34,1,110,119
1,131,2320.312,-1,52,50
1,132,2184.782,-1,58,50
1,133,2602.6839999999997,-1,119,110
1,134,2890.742,1,74,80
1,135,1954.547,1,86,80
1,136,1901.984,1,66,80
1,137,3133.506,1,50,59
1,138,2545.4179999999997,1,94,110
1,139,2023.4679999999998,-1,110,87
1,140,3330.755,1,75,80
1,141,1866.57,-1,50,45
1,142,1604.858,1,89,110
1,143,2458.127,1,80,94
1,144,4970.6359999999995,-1,110,98
1,145,3115.157,-1,94,80
1,146,3128.098,-1,110,94
1,147,3745.136,-1,80,66
1,148,3673.3520000000003,1,50,54
1,149,4942.765,1,98,110
1,150,2224.593,-1,50,52
1,151,2997.098,1,110,89
1,152,1391.7379999999994,1,87,110
1,153,3340.985,-1,110,105
1,154,1648.785,1,80,96
1,155,1990.089,-1,80,86
1,156,2490.532,1,50,55
1,157,2508.0170000000007,-1,80,74
1,158,2293.524,1,45,50
1,159,3004.8179999999998,1,69,80
1,200,3496.366,1,50,53
1,201,2849.513,1,50,40
1,202,1540.3929999999998,1,80,88
1,203,2342.863,-1,115,110
1,204,2502.521,1,103,110
1,205,1799.6270000000006,-1,90,80
1,206,5352.23,1,80,72
1,207,2424.21,-1,93,80
1,208,1269.404,1,80,90
1,209,2779.2740000000013,-1,88,80
1,210,2537.132,-1,80,70
1,211,2351.272,1,80,93
1,212,2358.716,-1,82,80
1,213,2684.724,-1,50,41
1,214,1983.477,1,96,110
1,215,4650.79,1,80,85
1,216,3835.065,-1,60,50
1,217,3849.2059999999997,1,41,50
1,218,3243.343,-1,110,96
1,219,1644.5839999999994,1,72,80
1,220,1274.981,1,49,50
1,221,2589.055,1,43,50
1,222,2300.565,-1,51,50
1,223,2922.026,-1,112,110
1,224,1135.847,1,40,50
1,225,1991.672,1,50,51
1,226,1851.808,-1,85,80
1,227,1321.0339999999999,1,50,49
1,228,4003.1240000000003,1,50,43
1,229,1954.281,-1,80,82
1,230,2030.128,1,50,60
1,231,1964.125,-1,53,50
1,232,2014.069,-1,122,110
1,233,1598.829,1,67,80
1,234,1453.6029999999994,1,80,67
1,235,1977.727,1,70,80
1,236,1623.8970000000006,1,110,122
1,237,2901.364,1,110,115
1,238,1565.164,1,110,112
1,239,1559.884,1,110,103
2,0,6228.547,1,110,131
2,1,6635.751,1,47,50
2,2,4766.7440000000015,-1,50,44
2,3,10945.402,-1,57,50
2,4,5673.265,1,42,50
2,5,46657.359000000004,1,108,110
2,6,7750.691,-1,78,80
2,7,9776.843,-1,110,92
2,8,7758.235,1,50,48
2,9,44526.337,-1,110,101
2,10,10806.455,1,46,50
2,11,5936.281,1,80,83
2,12,22118.048,-1,50,56
2,13,7867.571999999999,-1,50,47
2,14,24336.379,1,110,124
2,15,12568.18,-1,91,80
2,16,7216.420999999998,1,64,80
2,17,24450.946,-1,83,80
2,18,20652.52,1,101,110
2,19,9962.632,-1,56,50
2,20,15264.738000000001,-1,50,42
2,21,14577.04,1,110,117
2,22,10502.538,-1,77,80
2,23,8938.346,1,80,91
2,24,8371.705,1,44,50
2,25,8634.889000000001,-1,50,57
2,26,9256.349,-1,50,46
2,27,98982.33,-1,110,108
2,28,71123.695,-1,133,110
2,29,14323.976999999999,1,131,110
2,30,11246.8,1,126,110
2,31,5729.5819999999985,1,110,133
2,32,15507.063,1,110,126
2,33,9584.002,-1,48,50
2,34,15060.043,1,80,77
2,35,13755.941,1,117,110
2,36,4962.179,-1,80,64
2,37,7058.905,1,80,78
2,38,6745.102,1,124,110
2,39,5223.5109999999995,1,92,110
2,80,6980.156,-1,128,110
2,81,7323.464,1,50,58
2,82,12685.652,1,54,50
2,83,6234.269,-1,80,69
2,84,7470.982,1,105,110
2,85,19803.463,-1,55,50
2,86,4605.276,-1,96,80
2,87,10068.237,1,80,75
2,88,4717.351,1,110,128
2,89,10498.412,-1,59,50
2,90,4786.207,1,110,119
2,91,17514.256999999998,-1,52,50
2,92,7383.357,-1,58,50
2,93,19661.432,-1,119,110
2,94,11765.399,1,74,80
2,95,11965.88,-1,86,80
2,96,3989.236,1,66,80
2,97,9313.449,-1,50,59
2,98,10580.194,1,94,110
2,99,6636.98,-1,110,87
2,100,6202.516,1,75,80
2,101,28899.841,1,50,45
2,102,9338.527,1,89,110
2,103,4110.9529999999995,1,80,94
2,104,5941.794,-1,110,98
2,105,2614.124,-1,94,80
2,106,5470.66,-1,110,94
2,107,11858.61,-1,80,66
2,108,4419.104,1,50,54
2,109,8740.806,1,98,110
2,110,11192.925,-1,50,52
2,111,11204.062,-1,110,89
2,112,7304.684,1,87,110
2,113,8140.553000000001,1,110,105
2,114,10329.606,1,80,96
2,115,6838.95,1,80,86
2,116,7156.253000000002,1,50,55
2,117,23243.99700000001,-1,80,74
2,118,8328.395,1,45,50
2,119,2418.19,1,69,80
2,160,7567.203,1,50,53
2,161,3128.203,-1,50,40
2,162,4282.2429999999995,1,80,88
2,163,11387.791000000001,1,115,110
2,164,6243.72,1,103,110
2,165,7674.5,1,90,80
2,166,13351.711000000001,-1,80,72
2,167,15023.755,-1,93,80
2,168,4556.762,1,80,90
2,169,8987.876,-1,88,80
2,170,10619.167,-1,80,70
2,171,3456.776,1,80,93
2,172,6730.993,-1,82,80
2,173,6897.651999999999,-1,50,41
2,174,7074.3719999999985,1,96,110
2,175,4346.168,1,80,85
2,176,15269.582,-1,60,50
2,177,5680.574000000001,1,41,50
2,178,6420.155,-1,110,96
2,179,7512.655,1,72,80
2,180,4470.683,1,49,50
2,181,15616.594,-1,43,50
2,182,5593.92,-1,51,50
2,183,7397.905,1,112,110
2,184,4188.963,1,40,50
2,185,11009.733999999999,1,50,51
2,186,12227.283000000001,1,85,80
2,187,6611.683000000001,-1,50,49
2,188,6072.679,-1,50,43
2,189,6999.655,1,80,82
2,190,3228.329,1,50,60
2,191,4967.049,-1,53,50
2,192,12912.862,1,122,110
2,193,5397.382,1,67,80
2,194,9558.551,-1,80,67
2,195,6003.0869999999995,1,70,80
2,196,18304.296000000002,1,110,122
2,197,4058.755,1,110,115
2,198,23107.279,1,110,112
2,199,7476.425,-1,110,103
3,0,8280.333,1,110,131
3,1,7167.467,1,47,50
3,2,8070.478,1,50,44
3,3,4998.854,-1,57,50
3,4,7020.031,1,42,50
3,5,5506.326,1,108,110
3,6,5346.013000000001,1,78,80
3,7,6129.209,-1,110,92
3,8,9167.056,-1,50,48
3,9,7253.443,1,110,101
3,10,5005.184,1,46,50
3,11,5040.5109999999995,1,80,83
3,12,7641.814,-1,50,56
3,13,3350.8259999999996,1,50,47
3,14,3213.827,1,110,124
3,15,5841.773,-1,91,80
3,16,2625.4959999999996,1,64,80
3,17,4849.473,1,83,80
3,18,3451.203,1,101,110
3,19,7469.5880000000025,-1,56,50
3,20,3372.03,-1,50,42
3,21,6138.022,-1,110,117
3,22,6402.819,-1,77,80
3,23,4444.338,1,80,91
3,24,2608.5860000000002,1,44,50
3,25,5440.031999999998,1,50,57
3,26,5260.323,-1,50,46
3,27,2857.7,1,110,108
3,28,4622.699000000001,-1,133,110
3,29,4792.599,-1,131,110
3,30,6148.765,-1,126,110
3,31,4290.5,1,110,133
3,32,5208.041,-1,110,126
3,33,3034.445,1,48,50
3,34,3584.427,-1,80,77
3,35,6892.869000000002,-1,117,110
3,36,2476.989,1,80,64
3,37,5866.721,-1,80,78
3,38,7484.359,1,124,110
3,39,2500.835,1,92,110
3,80,3428.153,-1,128,110
3,81,2432.49,1,50,58
3,82,4460.86,-1,54,50
3,83,3493.2009999999996,-1,80,69
3,84,3374.0890000000004,1,105,110
3,85,2623.875,-1,55,50
3,86,4936.822,-1,96,80
3,87,6600.851,-1,80,75
3,88,3039.455,1,110,128
3,89,4171.929,-1,59,50
3,90,2621.5559999999996,1,110,119
3,91,4225.163,-1,52,50
3,92,1730.156,1,58,50
3,93,2161.17,-1,119,110
3,94,5793.635,-1,74,80
3,95,6880.526,-1,86,80
3,96,1503.644,1,66,80
3,97,3599.0209999999997,1,50,59
3,98,4647.3859999999995,1,94,110
3,99,2104.6079999999997,-1,110,87
3,100,3663.508,1,75,80
3,101,1428.75,1,50,45
3,102,1818.229,1,89,110
3,103,2621.649000000001,1,80,94
3,104,1861.231,-1,110,98
3,105,1986.401,-1,94,80
3,106,2072.406,1,110,94
3,107,2149.11,-1,80,66
3,108,1708.406,1,50,54
3,109,1849.511,1,98,110
3,110,1632.089,1,50,52
3,111,1427.93,-1,110,89
3,112,2591.58,1,87,110
3,113,3163.6859999999997,1,110,105
3,114,2995.507,1,80,96
3,115,2408.271,1,80,86
3,116,1715.7060000000001,1,50,55
3,117,4161.4940000000015,-1,80,74
3,118,4250.03,1,45,50
3,119,1883.5020000000002,1,69,80
3,160,3463.0209999999997,1,50,53
3,161,4614.063,1,50,40
3,162,3670.417,1,80,88
3,163,1955.2910000000002,-1,115,110
3,164,2539.423,1,103,110
3,165,2504.688,-1,90,80
3,166,2264.841,-1,80,72
3,167,3871.268,-1,93,80
3,168,2988.316,-1,80,90
3,169,3182.992,-1,88,80
3,170,2879.908,1,80,70
3,171,3832.5229999999997,1,80,93
3,172,3374.473,-1,82,80
3,173,4296.539000000002,-1,50,41
3,174,1664.744,1,96,110
3,175,1615.953,1,80,85
3,176,3923.5879999999997,1,60,50
3,177,4026.835,1,41,50
3,178,1902.0770000000002,-1,110,96
3,179,5104.126,1,72,80
3,180,2092.791,1,49,50
3,181,1598.885,1,43,50
3,182,3318.872000000001,-1,51,50
3,183,4246.255,-1,112,110
3,184,4098.269,1,40,50
3,185,4183.0340000000015,-1,50,51
3,186,1733.372,1,85,80
3,187,4202.163,1,50,49
3,188,2356.3,-1,50,43
3,189,1870.494,1,80,82
3,190,1738.671,1,50,60
3,191,2082.474,1,53,50
3,192,2463.471,1,122,110
3,193,1543.8870000000006,1,67,80
3,194,2664.14,-1,80,67
3,195,6240.445,1,70,80
3,196,2168.694,1,110,122
3,197,2788.367,-1,110,115
3,198,1900.364,1,110,112
3,199,2711.223,1,110,103
4,40,3753.06,1,110,131
4,41,2852.768,1,47,50
4,42,7578.454000000002,1,50,44
4,43,19368.146,-1,57,50
4,44,3215.312,1,42,50
4,45,1942.017,1,108,110
4,46,1587.5710000000001,1,78,80
4,47,2246.732,-1,110,92
4,48,2550.21,-1,50,48
4,49,5602.05,1,110,101
4,50,1793.4820000000002,1,46,50
4,51,5781.335,1,80,83
4,52,1880.9779999999998,1,50,56
4,53,3078.102000000001,1,50,47
4,54,9843.826,1,110,124
4,55,11180.726,-1,91,80
4,56,1902.12,1,64,80
4,57,1910.42,1,83,80
4,58,2634.23,1,101,110
4,59,2586.458,1,56,50
4,60,4955.317,1,50,42
4,61,2957.897,1,110,117
4,62,11515.408000000001,1,77,80
4,63,2351.575,1,80,91
4,64,3137.373,1,44,50
4,65,1736.9370000000001,1,50,57
4,66,2057.448,1,50,46
4,67,11483.743999999999,1,110,108
4,68,1873.12,-1,133,110
4,69,3187.65,-1,131,110
4,70,5174.183,-1,126,110
4,71,6284.96,1,110,133
4,72,2648.8920000000007,1,110,126
4,73,3745.2329999999997,1,48,50
4,74,5846.379,1,80,77
4,75,2244.629,1,117,110
4,76,4492.143,-1,80,64
4,77,2831.0679999999998,1,80,78
4,78,5841.602,1,124,110
4,79,2507.425,1,92,110
4,120,17445.725,-1,128,110
4,121,1605.944,1,50,58
4,122,4883.308,-1,54,50
4,123,1537.096,1,80,69
4,124,2097.817,1,105,110
4,125,6545.8409999999985,1,55,50
4,126,5068.047000000001,-1,96,80
4,127,10908.364,1,80,75
4,128,4783.775,1,110,128
4,129,5229.633,1,59,50
4,130,3058.329,1,110,119
4,131,6826.916,1,52,50
4,132,3045.3459999999995,-1,58,50
4,133,3269.93,1,119,110
4,134,1471.6870000000001,1,74,80
4,135,4238.808,1,86,80
4,136,1535.682,1,66,80
4,137,1519.3570000000002,1,50,59
4,138,2981.7509999999997,1,94,110
4,139,4321.7829999999985,-1,110,87
4,140,1608.882,1,75,80
4,141,9537.109,-1,50,45
4,142,1774.399,1,89,110
4,143,3304.423,1,80,94
4,144,3033.366,-1,110,98
4,145,6061.7119999999995,-1,94,80
4,146,2043.1570000000002,1,110,94
4,147,2237.002,-1,80,66
4,148,1632.8039999999999,1,50,54
4,149,1772.6979999999999,1,98,110
4,150,4730.624,1,50,52
4,151,12463.601999999999,1,110,89
4,152,1735.195,1,87,110
4,153,3602.502,1,110,105
4,154,1572.06,1,80,96
4,155,2244.141,1,80,86
4,156,2891.789,1,50,55
4,157,26075.23,-1,80,74
4,158,1549.096,1,45,50
4,159,1694.0629999999999,1,69,80
4,200,24275.208,1,50,53
4,201,28694.543999999998,-1,50,40
4,202,9090.346,1,80,88
4,203,2248.756,-1,115,110
4,204,6266.904,1,103,110
4,205,2477.286,-1,90,80
4,206,3713.833,1,80,72
4,207,3301.402,-1,93,80
4,208,4661.2429999999995,1,80,90
4,209,7973.228,-1,88,80
4,210,23899.959,-1,80,70
4,211,9832.332,1,80,93
4,212,8348.35,1,82,80
4,213,6603.464,1,50,41
4,214,1956.746,1,96,110
4,215,7123.875,1,80,85
4,216,4671.155,-1,60,50
4,217,2589.862,1,41,50
4,218,2795.518,-1,110,96
4,219,10457.271,1,72,80
4,220,19451.716,1,49,50
4,221,3254.627,1,43,50
4,222,3079.7329999999997,1,51,50
4,223,3459.986,1,112,110
4,224,15340.948999999999,1,40,50
4,225,19093.958,1,50,51
4,226,13427.761,1,85,80
4,227,6109.62,1,50,49
4,228,8288.198,-1,50,43
4,229,1916.6329999999998,1,80,82
4,230,7507.571999999999,1,50,60
4,231,13232.992,-1,53,50
4,232,11606.771999999999,-1,122,110
4,233,12451.409,1,67,80
4,234,18886.015,-1,80,67
4,235,1614.0610000000001,1,70,80
4,236,7399.05,-1,110,122
4,237,1900.737,1,110,115
4,238,3355.031,1,110,112
4,239,3006.93,1,110,103
5,40,2956.698,1,110,131
5,41,3701.877,-1,47,50
5,42,3152.05,-1,50,44
5,43,3153.11,-1,57,50
5,44,2396.847,1,42,50
5,45,4489.472,-1,108,110
5,46,3855.4390000000003,1,78,80
5,47,4038.0370000000003,-1,110,92
5,48,4217.473,1,50,48
5,49,3315.3759999999997,-1,110,101
5,50,3757.45,-1,46,50
5,51,6773.183000000001,-1,80,83
5,52,3177.4640000000004,1,50,56
5,53,3303.4629999999997,-1,50,47
5,54,2960.2129999999997,1,110,124
5,55,15960.826000000001,-1,91,80
5,56,4419.742,1,64,80
5,57,4347.116,1,83,80
5,58,5359.5909999999985,-1,101,110
5,59,2847.962,-1,56,50
5,60,3925.857,-1,50,42
5,61,5172.947,1,110,117
5,62,5052.259,1,77,80
5,63,5466.552,1,80,91
5,64,3752.296,1,44,50
5,65,2538.419,1,50,57
5,66,3357.547,1,50,46
5,67,5031.74,1,110,108
5,68,3503.9359999999997,-1,133,110
5,69,1993.8239999999998,-1,131,110
5,70,2816.1259999999997,-1,126,110
5,71,2861.5820000000012,1,110,133
5,72,2965.652,1,110,126
5,73,4486.102,1,48,50
5,74,2822.192,1,80,77
5,75,8519.964,1,117,110
5,76,4165.882000000001,-1,80,64
5,77,5106.462,-1,80,78
5,78,5412.254,-1,124,110
5,79,2672.4709999999995,1,92,110
5,120,2240.4320000000002,-1,128,110
5,121,2874.8390000000004,1,50,58
5,122,3298.259,-1,54,50
5,123,3386.571,-1,80,69
5,124,5788.203,1,105,110
5,125,3221.33,-1,55,50
5,126,4298.562,-1,96,80
5,127,5391.25,-1,80,75
5,128,4248.572,1,110,128
5,129,3983.248,1,59,50
5,130,4782.524,1,110,119
5,131,2972.602000000001,1,52,50
5,132,2512.02,-1,58,50
5,133,5967.203,-1,119,110
5,134,2562.18,1,74,80
5,135,4803.215,-1,86,80
5,136,2434.0679999999998,1,66,80
5,137,2408.256,1,50,59
5,138,2687.139,1,94,110
5,139,2855.139,-1,110,87
5,140,4525.585999999998,1,75,80
5,141,2420.489,-1,50,45
5,142,4451.694,1,89,110
5,143,4451.385,1,80,94
5,144,10142.36,1,110,98
5,145,1995.119,-1,94,80
5,146,7315.840999999998,-1,110,94
5,147,7825.448,1,80,66
5,148,5077.025,-1,50,54
5,149,7236.550999999998,-1,98,110
5,150,4429.96,1,50,52
5,151,3060.255,-1,110,89
5,152,4307.4529999999995,1,87,110
5,153,6352.37,-1,110,105
5,154,3454.677,1,80,96
5,155,7417.97,1,80,86
5,156,2525.835,1,50,55
5,157,3980.034,-1,80,74
5,158,7475.688,1,45,50
5,159,3418.941,1,69,80
5,200,10750.35,1,50,53
5,201,1967.1129999999998,-1,50,40
5,202,4202.552,1,80,88
5,203,5729.013000000001,1,115,110
5,204,6468.345,1,103,110
5,205,3401.716,-1,90,80
5,206,5120.399,-1,80,72
5,207,3429.8940000000002,-1,93,80
5,208,2685.014,1,80,90
5,209,3295.0570000000002,-1,88,80
5,210,2767.752,-1,80,70
5,211,6210.28,1,80,93
5,212,6286.696,1,82,80
5,213,2773.192,-1,50,41
5,214,5131.492,1,96,110
5,215,5182.951,1,80,85
5,216,3509.3709999999996,-1,60,50
5,217,5524.318,1,41,50
5,218,3216.242,-1,110,96
5,219,4535.487,-1,72,80
5,220,3339.6440000000002,-1,49,50
5,221,3696.722,1,43,50
5,222,9921.860999999999,1,51,50
5,223,4966.2609999999995,-1,112,110
5,224,3274.7129999999997,1,40,50
5,225,3353.705,-1,50,51
5,226,2880.162000000001,1,85,80
5,227,5744.953,1,50,49
5,228,7705.144,-1,50,43
5,229,5349.143,-1,80,82
5,230,1684.1270000000006,1,50,60
5,231,8920.318000000001,1,53,50
5,232,3929.4790000000003,-1,122,110
5,233,4745.499,1,67,80
5,234,7090.406999999997,1,80,67
5,235,2844.4629999999997,1,70,80
5,236,3887.278,1,110,122
5,237,3029.1459999999997,1,110,115
5,238,4561.733,1,110,112
5,239,3030.526,-1,110,103
6,0,4851.797000000001,1,110,131
6,1,3312.908,1,47,50
6,2,4002.002,-1,50,44
6,3,3162.02,1,57,50
6,4,2004.751,1,42,50
6,5,4362.1179999999995,1,108,110
6,6,3420.4,1,78,80
6,7,2673.063,-1,110,92
6,8,7952.5,1,50,48
6,9,3058.3779999999997,1,110,101
6,10,1738.02,1,46,50
6,11,5138.1579999999985,1,80,83
6,12,1388.854,1,50,56
6,13,6180.061,1,50,47
6,14,2672.362,1,110,124
6,15,3024.093,-1,91,80
6,16,3066.804,1,64,80
6,17,3916.881,-1,83,80
6,18,3402.134,-1,101,110
6,19,3214.156,-1,56,50
6,20,2321.735,-1,50,42
6,21,5081.537,-1,110,117
6,22,2524.9339999999997,-1,77,80
6,23,3137.0879999999997,1,80,91
6,24,2415.087,1,44,50
6,25,3210.695,1,50,57
6,26,2546.444,-1,50,46
6,27,2899.1479999999997,1,110,108
6,28,5130.035,-1,133,110
6,29,2914.8,-1,131,110
6,30,4271.251,-1,126,110
6,31,3288.96,1,110,133
6,32,2520.065,-1,110,126
6,33,2498.831,1,48,50
6,34,4839.608,-1,80,77
6,35,2739.551,-1,117,110
6,36,2809.392000000001,-1,80,64
6,37,3378.2690000000002,1,80,78
6,38,2938.868,1,124,110
6,39,2794.449,1,92,110
6,80,1976.739,-1,128,110
6,81,2004.993,1,50,58
6,82,4613.913,-1,54,50
6,83,1711.7420000000006,1,80,69
6,84,4627.032,1,105,110
6,85,5225.785,-1,55,50
6,86,2770.914,-1,96,80
6,87,3621.255,1,80,75
6,88,4006.095,1,110,128
6,89,3613.889,-1,59,50
6,90,2647.9509999999996,-1,110,119
6,91,2386.248,1,52,50
6,92,5160.542,1,58,50
6,93,2065.98,-1,119,110
6,94,2924.2790000000005,-1,74,80
6,95,2003.695,-1,86,80
6,96,1363.7910000000004,1,66,80
6,97,2217.916,1,50,59
6,98,1400.724,1,94,110
6,99,1797.961,-1,110,87
6,100,2228.883,1,75,80
6,101,3844.0879999999997,-1,50,45
6,102,3052.768,1,89,110
6,103,2088.88,1,80,94
6,104,3037.5570000000002,-1,110,98
6,105,2712.239,-1,94,80
6,106,1593.224,-1,110,94
6,107,1890.398,-1,80,66
6,108,2797.303,1,50,54
6,109,3297.712,-1,98,110
6,110,2174.46,1,50,52
6,111,1800.0410000000006,-1,110,89
6,112,1699.086,1,87,110
6,113,3231.459000000001,-1,110,105
6,114,2290.637,1,80,96
6,115,3646.764,1,80,86
6,116,3965.336,1,50,55
6,117,3670.988,1,80,74
6,118,1861.3529999999998,1,45,50
6,119,3099.9709999999995,1,69,80
6,160,2219.093,1,50,53
6,161,1555.681,-1,50,40
6,162,2286.6279999999997,1,80,88
6,163,1884.3329999999999,-1,115,110
6,164,3377.466,1,103,110
6,165,2420.207000000001,-1,90,80
6,166,2573.202,-1,80,72
6,167,1927.5520000000001,-1,93,80
6,168,1923.274,1,80,90
6,169,2021.136,1,88,80
6,170,1993.8429999999998,-1,80,70
6,171,3532.94,1,80,93
6,172,2024.598,-1,82,80
6,173,2658.4509999999996,-1,50,41
6,174,2239.484,1,96,110
6,175,1283.366,1,80,85
6,176,4467.623,1,60,50
6,177,1179.067,1,41,50
6,178,4555.062,1,110,96
6,179,1342.918,1,72,80
6,180,1767.8129999999999,1,49,50
6,181,2081.146,1,43,50
6,182,1579.585,1,51,50
6,183,2602.75,1,112,110
6,184,1439.3429999999994,1,40,50
6,185,1198.59,1,50,51
6,186,1701.021,-1,85,80
6,187,2031.543,1,50,49
6,188,2616.971,-1,50,43
6,189,2551.144,-1,80,82
6,190,1199.0810000000001,1,50,60
6,191,3041.209000000001,-1,53,50
6,192,3468.6009999999997,1,122,110
6,193,1921.719,1,67,80
6,194,2037.211,-1,80,67
6,195,2503.706,1,70,80
6,196,2870.153,1,110,122
6,197,1684.625,1,110,115
6,198,2492.4829999999997,1,110,112
6,199,5907.275,-1,110,103
7,0,4083.058,1,110,131
7,1,4313.189,1,47,50
7,2,11158.921999999999,-1,50,44
7,3,5597.954000000002,-1,57,50
7,4,1564.9229999999998,1,42,50
7,5,15107.624,1,108,110
7,6,9450.808,-1,78,80
7,7,4452.746,-1,110,92
7,8,1721.744,1,50,48
7,9,11827.374,-1,110,101
7,10,3334.369,1,46,50
7,11,2647.196,1,80,83
7,12,1496.54,1,50,56
7,13,5530.4119999999975,-1,50,47
7,14,9395.325,-1,110,124
7,15,11928.201000000001,-1,91,80
7,16,1513.154,1,64,80
7,17,2556.452,1,83,80
7,18,8147.533,1,101,110
7,19,3727.5609999999997,-1,56,50
7,20,3034.284,1,50,42
7,21,8183.8269999999975,1,110,117
7,22,2979.43,1,77,80
7,23,1699.13,1,80,91
7,24,2417.411,1,44,50
7,25,4118.085,1,50,57
7,26,12443.438999999995,1,50,46
7,27,3872.137,1,110,108
7,28,7794.385,1,133,110
7,29,15631.356000000002,-1,131,110
7,30,15260.773000000001,1,126,110
7,31,3851.631,1,110,133
7,32,3440.122000000001,1,110,126
7,33,2026.2910000000002,1,48,50
7,34,3003.111,1,80,77
7,35,11883.827,-1,117,110
7,36,2465.224,-1,80,64
7,37,4102.412,1,80,78
7,38,5583.2980000000025,-1,124,110
7,39,2509.03,1,92,110
7,80,4146.132000000001,-1,128,110
7,81,5066.16,1,50,58
7,82,2065.1079999999997,1,54,50
7,83,2471.3520000000008,-1,80,69
7,84,14248.641000000001,-1,105,110
7,85,7423.446999999999,-1,55,50
7,86,5118.518,1,96,80
7,87,7975.717,1,80,75
7,88,12748.498,1,110,128
7,89,1561.601,1,59,50
7,90,2412.444,1,110,119
7,91,4049.958,-1,52,50
7,92,6057.979,-1,58,50
7,93,5368.815,1,119,110
7,94,2718.774000000001,1,74,80
7,95,4263.372,1,86,80
7,96,1263.261,1,66,80
7,97,1384.3229999999999,1,50,59
7,98,3093.112,1,94,110
7,99,4106.6579999999985,-1,110,87
7,100,8186.085,1,75,80
7,101,13449.288,1,50,45
7,102,3480.991,1,89,110
7,103,3189.6409999999996,1,80,94
7,104,2569.138,-1,110,98
7,105,13104.226999999999,-1,94,80
7,106,2316.53,-1,110,94
7,107,2093.2870000000007,-1,80,66
7,108,4197.348,-1,50,54
7,109,1885.1329999999998,1,98,110
7,110,2367.676,1,50,52
7,111,2318.676,-1,110,89
7,112,2718.215,1,87,110
7,113,4299.052,-1,110,105
7,114,4727.753,1,80,96
7,115,2908.156,1,80,86
7,116,1443.693,1,50,55
7,117,2914.18,-1,80,74
7,118,5322.768,1,45,50
7,119,2847.647,1,69,80
7,160,4640.823,-1,50,53
7,161,6168.6169999999975,-1,50,40
7,162,1488.7679999999998,1,80,88
7,163,4667.444,1,115,110
7,164,3948.7670000000003,1,103,110
7,165,5512.26,-1,90,80
7,166,2251.195,1,80,72
7,167,1813.576,-1,93,80
7,168,2808.5040000000013,1,80,90
7,169,2526.192,1,88,80
7,170,2766.042,1,80,70
7,171,1804.396,1,80,93
7,172,4606.689,-1,82,80
7,173,2456.038,1,50,41
7,174,1383.182,1,96,110
7,175,2131.5679999999998,1,80,85
7,176,12090.306,-1,60,50
7,177,3136.882,1,41,50
7,178,2550.215,1,110,96
7,179,1454.421,1,72,80
7,180,3341.0820000000012,-1,49,50
7,181,1343.957,1,43,50
7,182,3425.812,-1,51,50
7,183,2157.652,-1,112,110
7,184,1216.547,1,40,50
7,185,3568.159,-1,50,51
7,186,3399.8779999999997,-1,85,80
7,187,3012.47,1,50,49
7,188,2355.175,1,50,43
7,189,3481.4509999999996,-1,80,82
7,190,1541.305,1,50,60
7,191,3198.9159999999997,-1,53,50
7,192,1410.329,1,122,110
7,193,1376.219,1,67,80
7,194,2630.958,-1,80,67
7,195,1467.97,1,70,80
7,196,1521.71,1,110,122
7,197,1211.751,1,110,115
7,198,2661.007,1,110,112
7,199,7486.021,-1,110,103
8,40,4993.562,1,110,131
8,41,3795.373,1,47,50
8,42,4768.419,1,50,44
8,43,7074.001,-1,57,50
8,44,7010.269,1,42,50
8,45,3297.75,1,108,110
8,46,2028.401,-1,78,80
8,47,7001.148,-1,110,92
8,48,1904.9029999999998,-1,50,48
8,49,6137.828,-1,110,101
8,50,1789.5910000000001,1,46,50
8,51,1607.714,1,80,83
8,52,1430.6329999999994,1,50,56
8,53,1845.8029999999999,-1,50,47
8,54,2698.17,-1,110,124
8,55,2192.458,1,91,80
8,56,2213.166,1,64,80
8,57,2714.8309999999997,-1,83,80
8,58,3723.87,-1,101,110
8,59,2246.661,-1,56,50
8,60,3688.427,-1,50,42
8,61,1567.154,1,110,117
8,62,2141.277,-1,77,80
8,63,2819.997000000001,1,80,91
8,64,1751.997,1,44,50
8,65,1681.4260000000006,1,50,57
8,66,3260.446,1,50,46
8,67,2745.4320000000002,1,110,108
8,68,3064.343,1,133,110
8,69,3042.958,-1,131,110
8,70,2689.534,-1,126,110
8,71,3982.511,1,110,133
8,72,1819.5729999999999,1,110,126
8,73,6171.741,1,48,50
8,74,1524.247,1,80,77
8,75,4600.759,1,117,110
8,76,2025.769,-1,80,64
8,77,1791.142,1,80,78
8,78,2225.989,-1,124,110
8,79,2391.515,-1,92,110
8,120,3815.0209999999997,1,128,110
8,121,1408.148,1,50,58
8,122,1627.54,1,54,50
8,123,2892.4159999999997,-1,80,69
8,124,2685.763,1,105,110
8,125,6899.668000000002,-1,55,50
8,126,3338.1490000000013,1,96,80
8,127,5372.894,-1,80,75
8,128,8255.298,1,110,128
8,129,2263.993,-1,59,50
8,130,2397.12,1,110,119
8,131,2290.511,-1,52,50
8,132,3064.158,-1,58,50
8,133,3191.691,1,119,110
8,134,1773.727,1,74,80
8,135,5151.366,-1,86,80
8,136,3350.238,1,66,80
8,137,1429.8670000000006,1,50,59
8,138,2588.006,1,94,110
8,139,3949.258,1,110,87
8,140,2819.317,-1,75,80
8,141,2724.465,-1,50,45
8,142,1768.763,1,89,110
8,143,2662.8309999999997,1,80,94
8,144,2720.735,-1,110,98
8,145,2168.314,-1,94,80
8,146,2177.405,-1,110,94
8,147,2734.053,1,80,66
8,148,7071.145,1,50,54
8,149,3290.315,1,98,110
8,150,1529.6629999999998,1,50,52
8,151,6277.281999999997,-1,110,89
8,152,3580.267000000001,1,87,110
8,153,2067.7270000000008,-1,110,105
8,154,2687.155,1,80,96
8,155,2634.212,1,80,86
8,156,5321.699000000001,1,50,55
8,157,6242.055,-1,80,74
8,158,3841.281,1,45,50
8,159,1794.3270000000002,1,69,80
8,200,3558.772,1,50,53
8,201,2050.16,-1,50,40
8,202,2111.391,1,80,88
8,203,1777.964,1,115,110
8,204,2248.647,1,103,110
8,205,1563.1270000000006,-1,90,80
8,206,2271.978,1,80,72
8,207,2260.891,1,93,80
8,208,1509.5379999999998,1,80,90
8,209,4128.835999999998,1,88,80
8,210,1242.251,1,80,70
8,211,2094.95,1,80,93
8,212,2392.54,1,82,80
8,213,2566.652,-1,50,41
8,214,1587.263,1,96,110
8,215,1428.4360000000001,1,80,85
8,216,2804.189000000001,1,60,50
8,217,2272.403,-1,41,50
8,218,2089.8070000000002,-1,110,96
8,219,2406.058,1,72,80
8,220,1395.817,1,49,50
8,221,1477.77,1,43,50
8,222,1956.009,1,51,50
8,223,2400.082000000001,1,112,110
8,224,1644.349,1,40,50
8,225,2142.379,-1,50,51
8,226,2177.221,1,85,80
8,227,1539.5420000000001,-1,50,49
8,228,1636.221,1,50,43
8,229,1258.661,1,80,82
8,230,1221.12,1,50,60
8,231,1365.15,1,53,50
8,232,1922.175,-1,122,110
8,233,1437.994,1,67,80
8,234,2292.136,-1,80,67
8,235,2162.8360000000002,1,70,80
8,236,1459.06,1,110,122
8,237,2033.5410000000002,-1,110,115
8,238,2197.817,1,110,112
8,239,3077.0820000000012,-1,110,103
9,0,1737.66,1,110,131
9,1,1700.4170000000001,1,47,50
9,2,1476.671,-1,50,44
9,3,1643.3270000000002,1,57,50
9,4,1397.6760000000006,1,42,50
9,5,2087.1220000000008,-1,108,110
9,6,1959.9170000000001,1,78,80
9,7,1866.011,-1,110,92
9,8,2345.8179999999998,1,50,48
9,9,3013.5290000000005,-1,110,101
9,10,1952.5620000000001,1,46,50
9,11,2152.2129999999997,-1,80,83
9,12,2567.785,-1,50,56
9,13,2959.43,1,50,47
9,14,2399.982,1,110,124
9,15,2534.6839999999997,-1,91,80
9,16,2663.548,1,64,80
9,17,2875.6540000000005,-1,83,80
9,18,2027.183,-1,101,110
9,19,2750.827,1,56,50
9,20,2205.375,1,50,42
9,21,1977.979,1,110,117
9,22,1980.279,-1,77,80
9,23,1653.0770000000002,1,80,91
9,24,1485.164,1,44,50
9,25,1783.6529999999998,1,50,57
9,26,1855.0970000000002,-1,50,46
9,27,2431.437,1,110,108
9,28,2048.157,1,133,110
9,29,1933.9370000000001,-1,131,110
9,30,1995.005,-1,126,110
9,31,1805.838,1,110,133
9,32,1846.3120000000001,1,110,126
9,33,1751.6529999999998,1,48,50
9,34,2292.031,-1,80,77
9,35,2356.063,-1,117,110
9,36,1909.306,-1,80,64
9,37,1744.836,1,80,78
9,38,2723.051,-1,124,110
9,39,2331.944,1,92,110
9,80,1749.954,-1,128,110
9,81,1325.432,1,50,58
9,82,1223.8419999999999,-1,54,50
9,83,1031.857,-1,80,69
9,84,1167.827,-1,105,110
9,85,1270.056,1,55,50
9,86,1048.826,-1,96,80
9,87,1234.482,-1,80,75
9,88,1125.772,1,110,128
9,89,1120.901,1,59,50
9,90,1388.5870000000002,1,110,119
9,91,1211.4189999999999,1,52,50
9,92,1755.945,1,58,50
9,93,1567.646,1,119,110
9,94,1723.37,-1,74,80
9,95,1767.759,-1,86,80
9,96,1512.4660000000001,1,66,80
9,97,1487.6629999999998,1,50,59
9,98,1124.705,1,94,110
9,99,1128.118,-1,110,87
9,100,1062.346,-1,75,80
9,101,1247.627,-1,50,45
9,102,1209.127,-1,89,110
9,103,2503.048,-1,80,94
9,104,2142.45,-1,110,98
9,105,3268.297,-1,94,80
9,106,1632.4470000000001,-1,110,94
9,107,1724.622,-1,80,66
9,108,1463.996,1,50,54
9,109,1469.6329999999994,-1,98,110
9,110,1770.168,1,50,52
9,111,1734.9779999999994,-1,110,89
9,112,1830.8129999999999,1,87,110
9,113,1773.786,-1,110,105
9,114,1453.213,1,80,96
9,115,1650.519,-1,80,86
9,116,1518.317,1,50,55
9,117,1905.45,-1,80,74
9,118,1860.1429999999998,-1,45,50
9,119,1720.63,-1,69,80
9,160,1672.766,1,50,53
9,161,1211.748,-1,50,40
9,162,1422.886,1,80,88
9,163,1275.274,-1,115,110
9,164,1023.7819999999999,-1,103,110
9,165,1566.8429999999994,-1,90,80
9,166,1352.63,-1,80,72
9,167,1244.595,-1,93,80
9,168,1387.496,1,80,90
9,169,1483.815,-1,88,80
9,170,1461.872,-1,80,70
9,171,1572.616,1,80,93
9,172,2036.769,1,82,80
9,173,1693.0510000000006,1,50,41
9,174,1715.57,-1,96,110
9,175,1660.9160000000006,1,80,85
9,176,1437.479,-1,60,50
9,177,1768.642,1,41,50
9,178,1623.335,-1,110,96
9,179,1826.3310000000001,-1,72,80
9,180,1082.646,1,49,50
9,181,1115.761,1,43,50
9,182,1659.308,-1,51,50
9,183,1612.594,-1,112,110
9,184,2141.188,1,40,50
9,185,1843.8039999999999,1,50,51
9,186,3760.222,-1,85,80
9,187,1652.6729999999998,1,50,49
9,188,1279.538,-1,50,43
9,189,1342.9229999999998,1,80,82
9,190,1662.773,-1,50,60
9,191,2508.084,-1,53,50
9,192,3754.656,-1,122,110
9,193,1307.697,1,67,80
9,194,1206.212,-1,80,67
9,195,1185.462,1,70,80
9,196,1392.9389999999999,-1,110,122
9,197,1522.491,-1,110,115
9,198,3121.925,-1,110,112
9,199,1837.339,-1,110,103
10,40,2438.639,1,110,131
10,41,1326.879,1,47,50
10,42,2008.8970000000002,-1,50,44
10,43,3251.427,-1,57,50
10,44,2833.729000000001,1,42,50
10,45,1694.866,-1,108,110
10,46,1296.653,-1,78,80
10,47,1529.774,-1,110,92
10,48,1082.362,1,50,48
10,49,3108.467,-1,110,101
10,50,4797.563,1,46,50
10,51,3431.0240000000013,-1,80,83
10,52,1124.577,1,50,56
10,53,4441.4540000000015,-1,50,47
10,54,4632.202,1,110,124
10,55,1632.6129999999994,-1,91,80
10,56,4819.272,1,64,80
10,57,3039.9309999999996,-1,83,80
10,58,3590.0440000000012,1,101,110
10,59,2701.3559999999998,1,56,50
10,60,1980.89,-1,50,42
10,61,4704.146,1,110,117
10,62,2282.415,1,77,80
10,63,2126.651,1,80,91
10,64,2219.879,1,44,50
10,65,1361.906,1,50,57
10,66,1211.06,1,50,46
10,67,5025.44,-1,110,108
10,68,1668.819,-1,133,110
10,69,1902.9920000000002,-1,131,110
10,70,2614.701,-1,126,110
10,71,2018.1689999999999,1,110,133
10,72,3067.38,1,110,126
10,73,2779.135,1,48,50
10,74,2203.819,1,80,77
10,75,1712.826,-1,117,110
10,76,1686.734,-1,80,64
10,77,1807.809,-1,80,78
10,78,1473.981,-1,124,110
10,79,2004.33,1,92,110
10,120,1421.8570000000002,-1,128,110
10,121,2683.921,1,50,58
10,122,2971.482,-1,54,50
10,123,3289.845,-1,80,69
10,124,1787.366,-1,105,110
10,125,1495.8210000000001,-1,55,50
10,126,1312.34,-1,96,80
10,127,1617.595,-1,80,75
10,128,2641.421,1,110,128
10,129,3239.75,-1,59,50
10,130,4830.474,1,110,119
10,131,5707.6309999999985,-1,52,50
10,132,3165.677,-1,58,50
10,133,1835.7979999999998,-1,119,110
10,134,2513.012,1,74,80
10,135,1628.7179999999994,-1,86,80
10,136,2175.323,1,66,80
10,137,2798.844,1,50,59
10,138,1538.526,-1,94,110
10,139,1389.557,-1,110,87
10,140,1704.155,1,75,80
10,141,2217.502,1,50,45
10,142,5787.017,1,89,110
10,143,2518.364,1,80,94
10,144,4822.179,-1,110,98
10,145,2906.6679999999997,-1,94,80
10,146,1577.21,-1,110,94
10,147,2177.234,-1,80,66
10,148,1134.675,1,50,54
10,149,2555.015,1,98,110
10,150,3902.862,1,50,52
10,151,2540.732,-1,110,89
10,152,3994.772,1,87,110
10,153,6138.929,1,110,105
10,154,1443.82,-1,80,96
10,155,7491.703,-1,80,86
10,156,2171.036,1,50,55
10,157,5706.276999999999,1,80,74
10,158,3753.437,1,45,50
10,159,1171.933,1,69,80
10,200,1227.903,1,50,53
10,201,2017.013,-1,50,40
10,202,2611.379,1,80,88
10,203,2512.763,1,115,110
10,204,1766.796,1,103,110
10,205,1995.8410000000001,-1,90,80
10,206,1143.188,-1,80,72
10,207,1491.604,1,93,80
10,208,2656.389,1,80,90
10,209,1688.155,-1,88,80
10,210,1190.6589999999999,-1,80,70
10,211,2803.53,1,80,93
10,212,2437.721,1,82,80
10,213,3223.498,-1,50,41
10,214,2559.688,1,96,110
10,215,3473.292,1,80,85
10,216,2095.43,-1,60,50
10,217,3955.994,-1,41,50
10,218,3932.3309999999997,1,110,96
10,219,1386.995,1,72,80
10,220,2313.741,-1,49,50
10,221,3087.3579999999997,1,43,50
10,222,2405.645,-1,51,50
10,223,5096.262,1,112,110
10,224,4183.4259999999995,1,40,50
10,225,1491.33,-1,50,51
10,226,1781.244,-1,85,80
10,227,11001.153999999999,1,50,49
10,228,5732.735,-1,50,43
10,229,4565.044,-1,80,82
10,230,1287.406,1,50,60
10,231,1760.896,-1,53,50
10,232,6325.959,-1,122,110
10,233,3826.7670000000003,1,67,80
10,234,2005.404,-1,80,67
10,235,1723.4920000000006,1,70,80
10,236,3657.047,1,110,122
10,237,8016.802,-1,110,115
10,238,2172.5860000000002,-1,110,112
10,239,1299.215,-1,110,103
11,0,8564.741,1,110,131
11,1,13211.21,-1,47,50
11,2,3541.179,1,50,44
11,3,3412.393,-1,57,50
11,4,4174.505,1,42,50
11,5,7675.66,1,108,110
11,6,14244.499,-1,78,80
11,7,5214.058,-1,110,92
11,8,6897.868,-1,50,48
11,9,1021.941,-1,110,101
11,10,13861.923,-1,46,50
11,11,4414.5459999999985,1,80,83
11,12,13654.764,1,50,56
11,13,3961.79,1,50,47
11,14,3624.73,1,110,124
11,15,18057.753,-1,91,80
11,16,2921.995,1,64,80
11,17,9394.374,-1,83,80
11,18,12000.368,1,101,110
11,19,5792.8830000000025,1,56,50
11,20,11095.371000000001,1,50,42
11,21,4784.8009999999995,-1,110,117
11,22,1362.3629999999996,1,77,80
11,23,7178.638000000001,1,80,91
11,24,6065.669,-1,44,50
11,25,8251.75,1,50,57
11,26,2260.1910000000007,1,50,46
11,27,5917.833000000001,1,110,108
11,28,3524.994,-1,133,110
11,29,16783.433,-1,131,110
11,30,10903.898000000001,1,126,110
11,31,3587.717,1,110,133
11,32,7358.151999999999,1,110,126
11,33,9287.089,-1,48,50
11,34,8693.901,-1,80,77
11,35,4052.565,-1,117,110
11,36,6860.493,-1,80,64
11,37,9173.561,-1,80,78
11,38,15333.791000000001,-1,124,110
11,39,17237.613,1,92,110
11,80,4100.337,-1,128,110
11,81,4154.866,1,50,58
11,82,3758.6659999999997,-1,54,50
11,83,7170.361999999999,-1,80,69
11,84,13068.882,1,105,110
11,85,7234.331999999998,1,55,50
11,86,3331.992,-1,96,80
11,87,9521.081,-1,80,75
11,88,5705.359,1,110,128
11,89,3063.55,-1,59,50
11,90,2528.952,1,110,119
11,91,4839.29,1,52,50
11,92,3404.93,-1,58,50
11,93,4739.4079999999985,-1,119,110
11,94,4685.584,1,74,80
11,95,3521.992,-1,86,80
11,96,5351.809,-1,66,80
11,97,4520.589,1,50,59
11,98,3687.303,1,94,110
11,99,7342.482,-1,110,87
11,100,4831.263,1,75,80
11,101,11852.555,1,50,45
11,102,14659.758,1,89,110
11,103,3897.805,1,80,94
11,104,3527.564000000001,1,110,98
11,105,2773.033,-1,94,80
11,106,2300.7,-1,110,94
11,107,14388.758,-1,80,66
11,108,2212.062,1,50,54
11,109,2736.71,1,98,110
11,110,23605.39,1,50,52
11,111,2208.33,-1,110,89
11,112,3031.7859999999996,1,87,110
11,113,2181.58,-1,110,105
11,114,2422.26,1,80,96
11,115,5657.024,-1,80,86
11,116,1928.941,1,50,55
11,117,5892.906,1,80,74
11,118,3976.784,1,45,50
11,119,2766.9829999999997,1,69,80
11,160,2360.284,1,50,53
11,161,5328.319,1,50,40
11,162,2798.265,1,80,88
11,163,16547.093,-1,115,110
11,164,3215.762,-1,103,110
11,165,4805.152,-1,90,80
11,166,3876.6009999999997,1,80,72
11,167,3662.945,1,93,80
11,168,7214.56,1,80,90
11,169,2799.691,-1,88,80
11,170,3203.563,-1,80,70
11,171,2004.114,1,80,93
11,172,6071.469,-1,82,80
11,173,1447.59,1,50,41
11,174,2234.9210000000007,1,96,110
11,175,3708.76,1,80,85
11,176,3523.153,-1,60,50
11,177,7845.473000000001,-1,41,50
11,178,5287.708000000001,-1,110,96
11,179,1772.283,1,72,80
11,180,2435.127,-1,49,50
11,181,1368.463,1,43,50
11,182,2530.144,-1,51,50
11,183,5170.237,-1,112,110
11,184,14426.898000000001,-1,40,50
11,185,10303.299,1,50,51
11,186,5913.5,1,85,80
11,187,8980.201,-1,50,49
11,188,2652.93,1,50,43
11,189,3262.577,1,80,82
11,190,9705.507,1,50,60
11,191,4653.63,1,53,50
11,192,2075.242,-1,122,110
11,193,1184.873,1,67,80
11,194,10564.16,1,80,67
11,195,1824.8470000000002,1,70,80
11,196,2398.761,-1,110,122
11,197,4017.863,-1,110,115
11,198,2069.535,-1,110,112
11,199,6801.251,1,110,103
12,0,5012.3809999999985,1,110,131
12,1,4646.738,1,47,50
12,2,4092.8909999999996,1,50,44
12,3,2190.67,1,57,50
12,4,5622.538000000001,1,42,50
12,5,2724.52,-1,108,110
12,6,2449.388,1,78,80
12,7,1639.989,-1,110,92
12,8,3432.6059999999998,-1,50,48
12,9,2934.281,-1,110,101
12,10,1190.89,1,46,50
12,11,1767.183,1,80,83
12,12,1294.651,1,50,56
12,13,2238.074,-1,50,47
12,14,6584.98,-1,110,124
12,15,1428.599,1,91,80
12,16,1490.4279999999999,1,64,80
12,17,2125.862,1,83,80
12,18,1668.862,1,101,110
12,19,3030.5879999999997,-1,56,50
12,20,4424.91,-1,50,42
12,21,2969.178,1,110,117
12,22,1303.4489999999996,1,77,80
12,23,1357.856,1,80,91
12,24,2354.092,1,44,50
12,25,2004.533,1,50,57
12,26,3356.9509999999996,-1,50,46
12,27,1521.511,1,110,108
12,28,1888.7120000000002,1,133,110
12,29,3473.5229999999997,-1,131,110
12,30,1729.0910000000001,1,126,110
12,31,2395.127,1,110,133
12,32,1582.4129999999998,1,110,126
12,33,3903.343,1,48,50
12,34,2663.1440000000002,-1,80,77
12,35,1934.49,1,117,110
12,36,2405.19,-1,80,64
12,37,1545.105,1,80,78
12,38,2604.714,-1,124,110
12,39,1120.327,1,92,110
12,80,2319.583,-1,128,110
12,81,2658.008,1,50,58
12,82,4644.769,-1,54,50
12,83,2336.904,-1,80,69
12,84,2232.262,1,105,110
12,85,2404.2329999999997,-1,55,50
12,86,3773.941,-1,96,80
12,87,1389.338,-1,80,75
12,88,1345.217,1,110,128
12,89,2517.299,-1,59,50
12,90,1667.654,1,110,119
12,91,2896.692,-1,52,50
12,92,1162.424,1,58,50
12,93,1708.8370000000002,-1,119,110
12,94,1290.039,1,74,80
12,95,1770.5439999999999,1,86,80
12,96,1432.934,1,66,80
12,97,3000.278,1,50,59
12,98,1799.973,1,94,110
12,99,1775.2,-1,110,87
12,100,1256.005,1,75,80
12,101,3209.321,-1,50,45
12,102,1909.739,1,89,110
12,103,1389.695,1,80,94
12,104,1464.614,1,110,98
12,105,2393.765,1,94,80
12,106,1465.825,1,110,94
12,107,1234.519,1,80,66
12,108,2530.536,1,50,54
12,109,1402.307,1,98,110
12,110,1189.0710000000001,1,50,52
12,111,2251.736,-1,110,89
12,112,1241.553,1,87,110
12,113,1491.138,1,110,105
12,114,1117.673,1,80,96
12,115,1573.281,1,80,86
12,116,4591.682,1,50,55
12,117,1523.109,1,80,74
12,118,1425.348,1,45,50
12,119,1289.357,1,69,80
12,160,1246.182,-1,50,53
12,161,2715.792,1,50,40
12,162,1603.725,1,80,88
12,163,3490.857,1,115,110
12,164,2474.3179999999998,1,103,110
12,165,3312.9359999999997,-1,90,80
12,166,2107.919,1,80,72
12,167,1611.5339999999999,-1,93,80
12,168,1120.9089999999999,1,80,90
12,169,1756.3470000000002,-1,88,80
12,170,1201.742,1,80,70
12,171,1355.249,1,80,93
12,172,1976.005,1,82,80
12,173,3158.077,-1,50,41
12,174,1300.309,1,96,110
12,175,1160.845,1,80,85
12,176,1980.2620000000002,-1,60,50
12,177,1208.765,1,41,50
12,178,1475.131,-1,110,96
12,179,1204.252,1,72,80
12,180,1540.5639999999999,-1,49,50
12,181,2375.8579999999997,1,43,50
12,182,3069.247000000001,1,51,50
12,183,3198.5679999999998,1,112,110
12,184,1931.763,1,40,50
12,185,1189.781,1,50,51
12,186,3198.531,-1,85,80
12,187,1332.856,1,50,49
12,188,2105.839,1,50,43
12,189,2128.659,1,80,82
12,190,1234.0539999999999,1,50,60
12,191,1231.836,1,53,50
12,192,2939.993,1,122,110
12,193,1417.895,1,67,80
12,194,1590.047,1,80,67
12,195,1628.809,1,70,80
12,196,1363.523,1,110,122
12,197,1978.787,1,110,115
12,198,1261.728,1,110,112
12,199,2846.988,-1,110,103
13,40,4728.5340000000015,1,110,131
13,41,4777.03,1,47,50
13,42,5237.59,-1,50,44
13,43,4732.615,-1,57,50
13,44,5130.834,1,42,50
13,45,4248.016,-1,108,110
13,46,4516.884,1,78,80
13,47,4790.279,-1,110,92
13,48,3812.761,1,50,48
13,49,4843.772,1,110,101
13,50,5095.775,-1,46,50
13,51,4325.052,1,80,83
13,52,4924.589,1,50,56
13,53,4976.991,1,50,47
13,54,5782.88,1,110,124
13,55,6755.802,1,91,80
13,56,5654.201,1,64,80
13,57,5400.0340000000015,1,83,80
13,58,4913.412,1,101,110
13,59,6080.446,1,56,50
13,60,6902.097,-1,50,42
13,61,6638.75,-1,110,117
13,62,5702.751,-1,77,80
13,63,3842.298,1,80,91
13,64,5351.669,1,44,50
13,65,6971.184,-1,50,57
13,66,5742.0769999999975,-1,50,46
13,67,4953.392,1,110,108
13,68,5710.593000000003,-1,133,110
13,69,5005.606,-1,131,110
13,70,4991.3,1,126,110
13,71,4425.7559999999985,1,110,133
13,72,3912.845,1,110,126
13,73,5197.845,1,48,50
13,74,4044.83,1,80,77
13,75,6092.637,-1,117,110
13,76,4904.838,-1,80,64
13,77,5516.299,1,80,78
13,78,6759.424,-1,124,110
13,79,3572.406,1,92,110
13,120,5230.6359999999995,-1,128,110
13,121,5874.714,1,50,58
13,122,3882.513,-1,54,50
13,123,5160.128,1,80,69
13,124,5214.65,1,105,110
13,125,6416.168000000002,1,55,50
13,126,5839.816,-1,96,80
13,127,5462.825,-1,80,75
13,128,5443.724,1,110,128
13,129,4849.737,-1,59,50
13,130,6404.263000000001,1,110,119
13,131,4603.016,1,52,50
13,132,5106.066,-1,58,50
13,133,6099.7019999999975,1,119,110
13,134,5255.903,1,74,80
13,135,5245.326,1,86,80
13,136,5599.875,1,66,80
13,137,5294.956,1,50,59
13,138,5642.69,1,94,110
13,139,4226.286,-1,110,87
13,140,5756.5459999999985,1,75,80
13,141,4965.766,-1,50,45
13,142,7015.6269999999995,1,89,110
13,143,5160.893,1,80,94
13,144,4337.33,-1,110,98
13,145,6132.946999999999,-1,94,80
13,146,4912.862,-1,110,94
13,147,4969.93,-1,80,66
13,148,5976.24,1,50,54
13,149,4317.682,1,98,110
13,150,5316.243,1,50,52
13,151,4742.574000000001,-1,110,89
13,152,3871.821,1,87,110
13,153,4601.964,-1,110,105
13,154,4808.78,1,80,96
13,155,5201.617,1,80,86
13,156,4275.3679999999995,-1,50,55
13,157,5999.5,1,80,74
13,158,5505.031,1,45,50
13,159,4913.246,-1,69,80
13,200,4816.5920000000015,1,50,53
13,201,3511.801,-1,50,40
13,202,5224.515,1,80,88
13,203,4567.46,-1,115,110
13,204,6081.765,-1,103,110
13,205,4722.791,1,90,80
13,206,4314.562,-1,80,72
13,207,6493.06,1,93,80
13,208,5079.54,1,80,90
13,209,4872.122,1,88,80
13,210,5923.554,-1,80,70
13,211,5739.7019999999975,-1,80,93
13,212,3609.935,-1,82,80
13,213,4718.206,-1,50,41
13,214,5102.42,1,96,110
13,215,7662.148,1,80,85
13,216,4659.4,1,60,50
13,217,4809.0909999999985,1,41,50
13,218,7848.312,1,110,96
13,219,4250.151,1,72,80
13,220,5007.031,1,49,50
13,221,4118.45,-1,43,50
13,222,5158.058,-1,51,50
13,223,6182.178000000001,-1,112,110
13,224,4159.415,1,40,50
13,225,4275.996,1,50,51
13,226,5795.236,1,85,80
13,227,6365.7959999999985,1,50,49
13,228,5776.521,-1,50,43
13,229,5259.883000000002,1,80,82
13,230,4087.283,1,50,60
13,231,5729.785,-1,53,50
13,232,5653.554,-1,122,110
13,233,4699.603,1,67,80
13,234,5410.811,-1,80,67
13,235,5424.203,1,70,80
13,236,4785.365,1,110,122
13,237,3572.615,-1,110,115
13,238,5652.393,1,110,112
13,239,4758.971,-1,110,103
14,0,2411.837,1,110,131
14,1,2699.638,-1,47,50
14,2,5223.695,-1,50,44
14,3,4476.188,-1,57,50
14,4,2077.9339999999997,1,42,50
14,5,7788.119000000002,1,108,110
14,6,4302.3,-1,78,80
14,7,1526.463,-1,110,92
14,8,3183.118,-1,50,48
14,9,3205.175,-1,110,101
14,10,1604.214,1,46,50
14,11,6530.474,1,80,83
14,12,1491.1570000000006,1,50,56
14,13,1333.8729999999996,-1,50,47
14,14,6532.274,-1,110,124
14,15,4038.85,-1,91,80
14,16,2546.243,1,64,80
14,17,4194.065,-1,83,80
14,18,3940.452,-1,101,110
14,19,2702.658,-1,56,50
14,20,4240.585,-1,50,42
14,21,2314.874,-1,110,117
14,22,3636.833,-1,77,80
14,23,1793.3829999999994,1,80,91
14,24,4592.348,1,44,50
14,25,4757.3690000000015,1,50,57
14,26,8235.293,-1,50,46
14,27,6841.092,1,110,108
14,28,2101.964,-1,133,110
14,29,1568.7910000000006,-1,131,110
14,30,2712.183,-1,126,110
14,31,5973.21,1,110,133
14,32,3141.054,1,110,126
14,33,1848.953,1,48,50
14,34,2688.136,-1,80,77
14,35,6172.306,-1,117,110
14,36,3677.1409999999996,-1,80,64
14,37,5200.268,-1,80,78
14,38,2072.589,-1,124,110
14,39,4900.0790000000015,1,92,110
14,80,5015.075,-1,128,110
14,81,1367.3629999999996,1,50,58
14,82,2077.351,-1,54,50
14,83,3691.81,-1,80,69
14,84,2172.653,-1,105,110
14,85,3391.115,-1,55,50
14,86,2218.531,-1,96,80
14,87,2659.04,1,80,75
14,88,2667.889,1,110,128
14,89,6196.985,-1,59,50
14,90,5425.233,1,110,119
14,91,2724.3459999999995,-1,52,50
14,92,3105.605,-1,58,50
14,93,10200.481,-1,119,110
14,94,1216.532,1,74,80
14,95,2016.1470000000002,-1,86,80
14,96,1319.8210000000001,1,66,80
14,97,2841.325,1,50,59
14,98,3073.9440000000004,1,94,110
14,99,1385.729,-1,110,87
14,100,3229.698,-1,75,80
14,101,1760.556,-1,50,45
14,102,3067.113,1,89,110
14,103,1504.9470000000001,1,80,94
14,104,4153.062,-1,110,98
14,105,1590.977,-1,94,80
14,106,4050.696,-1,110,94
14,107,1998.507,-1,80,66
14,108,1634.1689999999999,-1,50,54
14,109,2040.6989999999998,1,98,110
14,110,1735.6029999999994,1,50,52
14,111,3426.046,-1,110,89
14,112,1302.233,1,87,110
14,113,1644.2079999999999,-1,110,105
14,114,2063.859,1,80,96
14,115,4972.1359999999995,1,80,86
14,116,1493.973,1,50,55
14,117,9061.277,-1,80,74
14,118,4308.776,1,45,50
14,119,1492.819,1,69,80
14,160,7810.219,-1,50,53
14,161,4358.031,-1,50,40
14,162,2082.529,-1,80,88
14,163,4631.005,-1,115,110
14,164,3551.473,-1,103,110
14,165,5933.998000000001,-1,90,80
14,166,3048.616,-1,80,72
14,167,2389.491,-1,93,80
14,168,4955.968,1,80,90
14,169,2224.953,1,88,80
14,170,6152.0369999999975,-1,80,70
14,171,1813.711,1,80,93
14,172,3622.56,-1,82,80
14,173,2720.344,-1,50,41
14,174,2245.708,1,96,110
14,175,3785.487,1,80,85
14,176,3213.752,1,60,50
14,177,1167.823,1,41,50
14,178,1525.374,-1,110,96
14,179,3431.1490000000013,1,72,80
14,180,2443.1910000000007,-1,49,50
14,181,2221.091,1,43,50
14,182,2935.902,-1,51,50
14,183,1651.364,-1,112,110
14,184,1982.287,1,40,50
14,185,2313.609,-1,50,51
14,186,1456.4560000000001,-1,85,80
14,187,1619.36,-1,50,49
14,188,1573.1629999999998,-1,50,43
14,189,1486.638,1,80,82
14,190,1062.845,1,50,60
14,191,3646.1009999999997,-1,53,50
14,192,1232.637,-1,122,110
14,193,2411.8,1,67,80
14,194,4659.356,-1,80,67
14,195,1656.365,1,70,80
14,196,2788.2329999999997,-1,110,122
14,197,3271.6079999999997,1,110,115
14,198,2808.27,1,110,112
14,199,1766.714,-1,110,103
15,0,2542.2470000000008,1,110,131
15,1,8627.313,1,47,50
15,2,6442.393,-1,50,44
15,3,2761.314000000001,-1,57,50
15,4,8024.03,-1,42,50
15,5,9336.779,-1,108,110
15,6,9932.804,-1,78,80
15,7,5285.785,-1,110,92
15,8,7635.335,-1,50,48
15,9,9593.819,-1,110,101
15,10,4161.977,1,46,50
15,11,14553.385,1,80,83
15,12,5162.8420000000015,-1,50,56
15,13,8179.39,1,50,47
15,14,3542.087,1,110,124
15,15,13076.186000000005,-1,91,80
15,16,8313.158000000001,1,64,80
15,17,8153.101,1,83,80
15,18,3705.6259999999997,1,101,110
15,19,8992.614,-1,56,50
15,20,9472.059000000001,-1,50,42
15,21,8236.17,1,110,117
15,22,15938.463,-1,77,80
15,23,4239.218,1,80,91
15,24,5746.953,1,44,50
15,25,9532.568000000001,1,50,57
15,26,4722.124,1,50,46
15,27,15369.211000000001,1,110,108
15,28,7385.411,-1,133,110
15,29,9895.334,-1,131,110
15,30,6098.063,1,126,110
15,31,4835.46,1,110,133
15,32,6008.151999999999,1,110,126
15,33,6182.891,1,48,50
15,34,7349.795999999998,-1,80,77
15,35,10474.995,1,117,110
15,36,5421.495,-1,80,64
15,37,3153.256,1,80,78
15,38,6262.733,-1,124,110
15,39,4944.41,1,92,110
15,80,2979.25,-1,128,110
15,81,3156.9159999999997,1,50,58
15,82,3595.586,1,54,50
15,83,3120.278,-1,80,69
15,84,2814.763,1,105,110
15,85,2994.377,-1,55,50
15,86,3986.6929999999998,-1,96,80
15,87,3316.9359999999997,-1,80,75
15,88,3882.113,1,110,128
15,89,6059.312,-1,59,50
15,90,2162.938,1,110,119
15,91,2865.913,1,52,50
15,92,5206.444,1,58,50
15,93,2973.926,-1,119,110
15,94,2883.09,1,74,80
15,95,4685.692,1,86,80
15,96,3041.92,1,66,80
15,97,1800.668,1,50,59
15,98,1763.589,1,94,110
15,99,2315.861,-1,110,87
15,100,2945.51,-1,75,80
15,101,2771.265,-1,50,45
15,102,4139.096,1,89,110
15,103,2622.048,-1,80,94
15,104,3390.5609999999997,-1,110,98
15,105,2481.136,-1,94,80
15,106,6369.557,1,110,94
15,107,2528.916,1,80,66
15,108,3756.866,1,50,54
15,109,4616.184,-1,98,110
15,110,1577.296,1,50,52
15,111,1761.881,1,110,89
15,112,3794.42,1,87,110
15,113,2456.939,1,110,105
15,114,3026.124000000001,1,80,96
15,115,2286.223,1,80,86
15,116,7993.306,1,50,55
15,117,5194.652,1,80,74
15,118,2514.565,1,45,50
15,119,2769.315,1,69,80
15,160,2780.69,-1,50,53
15,161,1750.4589999999994,-1,50,40
15,162,1840.3529999999998,1,80,88
15,163,3000.427,-1,115,110
15,164,4711.282,1,103,110
15,165,6119.472,-1,90,80
15,166,6086.816999999999,1,80,72
15,167,2073.7,-1,93,80
15,168,1919.815,1,80,90
15,169,1859.665,-1,88,80
15,170,3829.803,1,80,70
15,171,2262.893,1,80,93
15,172,2561.397,-1,82,80
15,173,2966.97,-1,50,41
15,174,1997.931,1,96,110
15,175,2338.831,1,80,85
15,176,5661.196,-1,60,50
15,177,2959.739,1,41,50
15,178,2422.732,-1,110,96
15,179,3826.993,1,72,80
15,180,1758.854,1,49,50
15,181,3028.583,1,43,50
15,182,2697.3740000000007,1,51,50
15,183,4102.764,1,112,110
15,184,1756.352,1,40,50
15,185,2397.228,1,50,51
15,186,2173.729,-1,85,80
15,187,3967.9109999999996,-1,50,49
15,188,3741.914,-1,50,43
15,189,3889.217,1,80,82
15,190,1520.499,1,50,60
15,191,1762.876,1,53,50
15,192,1924.224,-1,122,110
15,193,3361.83,1,67,80
15,194,3701.0029999999997,-1,80,67
15,195,1737.5339999999999,1,70,80
15,196,1580.1470000000006,1,110,122
15,197,3868.655,1,110,115
15,198,4961.902,1,110,112
15,199,1960.82,1,110,103
16,40,2008.781,1,110,131
16,41,2586.882,-1,47,50
16,42,3858.222,1,50,44
16,43,2024.535,-1,57,50
16,44,2895.813,1,42,50
16,45,2284.07,-1,108,110
16,46,1841.979,1,78,80
16,47,2076.77,-1,110,92
16,48,3061.948,-1,50,48
16,49,2374.73,-1,110,101
16,50,3362.285,1,46,50
16,51,2935.1940000000004,-1,80,83
16,52,1436.7420000000006,1,50,56
16,53,3460.248,-1,50,47
16,54,2347.5460000000007,1,110,124
16,55,4932.093,1,91,80
16,56,3935.0559999999996,1,64,80
16,57,2121.737,1,83,80
16,58,1531.599,1,101,110
16,59,2478.458,-1,56,50
16,60,3828.946,-1,50,42
16,61,4461.252,1,110,117
16,62,2795.627,-1,77,80
16,63,3155.075,-1,80,91
16,64,1472.473,1,44,50
16,65,1866.506,1,50,57
16,66,1862.875,-1,50,46
16,67,1877.529,-1,110,108
16,68,1935.355,-1,133,110
16,69,4587.041,1,131,110
16,70,2047.8129999999999,-1,126,110
16,71,1788.521,1,110,133
16,72,2422.426,1,110,126
16,73,2130.592,1,48,50
16,74,2285.173,1,80,77
16,75,4221.68,-1,117,110
16,76,1724.138,-1,80,64
16,77,2763.993,-1,80,78
16,78,1961.624,-1,124,110
16,79,3086.572,1,92,110
16,120,2297.314,1,128,110
16,121,1450.68,1,50,58
16,122,1785.609,-1,54,50
16,123,3070.115,-1,80,69
16,124,2001.3929999999998,-1,105,110
16,125,3542.867,1,55,50
16,126,1684.057,-1,96,80
16,127,3277.203,-1,80,75
16,128,2804.9359999999997,1,110,128
16,129,2607.5679999999998,-1,59,50
16,130,4602.334,1,110,119
16,131,2088.893,1,52,50
16,132,2599.006,-1,58,50
16,133,2728.257,-1,119,110
16,134,1424.432,1,74,80
16,135,4003.2329999999997,-1,86,80
16,136,2458.65,1,66,80
16,137,1380.082,1,50,59
16,138,2036.945,1,94,110
16,139,2979.857,-1,110,87
16,140,1563.707,1,75,80
16,141,1949.932,-1,50,45
16,142,1564.1879999999999,1,89,110
16,143,1570.775,1,80,94
16,144,2046.326,-1,110,98
16,145,1989.609,1,94,80
16,146,4922.105,-1,110,94
16,147,2979.6009999999997,-1,80,66
16,148,1501.0829999999999,-1,50,54
16,149,4729.0,1,98,110
16,150,1268.247,1,50,52
16,151,1773.473,-1,110,89
16,152,3472.1,1,87,110
16,153,3527.954,1,110,105
16,154,1474.2160000000001,1,80,96
16,155,2694.1890000000008,1,80,86
16,156,1369.8,1,50,55
16,157,2337.132,-1,80,74
16,158,1163.444,1,45,50
16,159,2544.723,1,69,80
16,200,3447.013,-1,50,53
16,201,2861.298,-1,50,40
16,202,1581.868,1,80,88
16,203,3253.2790000000005,1,115,110
16,204,1378.5829999999999,1,103,110
16,205,1118.566,1,90,80
16,206,4386.187,-1,80,72
16,207,4784.3679999999995,-1,93,80
16,208,4116.16,-1,80,90
16,209,2423.192,-1,88,80
16,210,1776.985,-1,80,70
16,211,1505.001,1,80,93
16,212,1452.55,1,82,80
16,213,1761.95,-1,50,41
16,214,1458.171,1,96,110
16,215,2013.089,1,80,85
16,216,1090.55,1,60,50
16,217,1368.8029999999999,1,41,50
16,218,3310.863,-1,110,96
16,219,1333.375,1,72,80
16,220,1099.681,1,49,50
16,221,1094.369,1,43,50
16,222,1480.236,1,51,50
16,223,2309.8160000000007,1,112,110
16,224,1215.538,1,40,50
16,225,2433.235,-1,50,51
16,226,2634.328,1,85,80
16,227,3138.709000000001,-1,50,49
16,228,2271.006,-1,50,43
16,229,1691.994,1,80,82
16,230,1163.123,1,50,60
16,231,2011.25,1,53,50
16,232,1789.399,-1,122,110
16,233,1387.1779999999999,1,67,80
16,234,1788.973,-1,80,67
16,235,1354.6860000000001,1,70,80
16,236,1574.639,-1,110,122
16,237,3036.334000000001,-1,110,115
16,238,2535.757,-1,110,112
16,239,1278.781,1,110,103
17,0,5160.755,1,110,131
17,1,5476.7519999999995,1,47,50
17,2,8795.442,-1,50,44
17,3,2722.045,-1,57,50
17,4,2295.407,1,42,50
17,5,8504.661,1,108,110
17,6,8819.823,1,78,80
17,7,5062.996,-1,110,92
17,8,5747.128000000002,1,50,48
17,9,9253.138,1,110,101
17,10,4601.858,1,46,50
17,11,5596.897,-1,80,83
17,12,4091.185,1,50,56
17,13,6796.208000000001,-1,50,47
17,14,2675.7490000000007,1,110,124
17,15,5472.234,-1,91,80
17,16,8278.929,1,64,80
17,17,11238.256000000001,1,83,80
17,18,14285.493999999999,1,101,110
17,19,7703.028,1,56,50
17,20,10331.197,-1,50,42
17,21,18416.96,-1,110,117
17,22,2657.7929999999997,-1,77,80
17,23,8402.476,1,80,91
17,24,3144.345,1,44,50
17,25,3045.078,1,50,57
17,26,10122.536,1,50,46
17,27,5818.096,-1,110,108
17,28,5373.225,-1,133,110
17,29,6580.3859999999995,-1,131,110
17,30,5049.907,-1,126,110
17,31,10371.513,1,110,133
17,32,4922.645,1,110,126
17,33,4311.127,-1,48,50
17,34,10980.743999999999,-1,80,77
17,35,6566.471,-1,117,110
17,36,3874.4629999999997,-1,80,64
17,37,13264.296,1,80,78
17,38,7431.411,-1,124,110
17,39,8552.089,1,92,110
17,80,8105.937,-1,128,110
17,81,6189.041,-1,50,58
17,82,7687.597,-1,54,50
17,83,9285.34,1,80,69
17,84,5532.585,1,105,110
17,85,13944.792,-1,55,50
17,86,2445.729,-1,96,80
17,87,4590.124,-1,80,75
17,88,8380.514000000001,1,110,128
17,89,3432.429,-1,59,50
17,90,3722.6209999999996,1,110,119
17,91,2249.913,-1,52,50
17,92,5482.09,-1,58,50
17,93,3675.066,-1,119,110
17,94,6204.276,1,74,80
17,95,7792.313,-1,86,80
17,96,6074.708000000001,1,66,80
17,97,4961.477,-1,50,59
17,98,2630.567,1,94,110
17,99,7520.661,-1,110,87
17,100,8540.538,-1,75,80
17,101,5538.106,-1,50,45
17,102,11191.67,1,89,110
17,103,3857.111,1,80,94
17,104,5781.8009999999995,1,110,98
17,105,3470.3059999999996,-1,94,80
17,106,6867.0059999999985,-1,110,94
17,107,10484.591999999999,1,80,66
17,108,6690.687,1,50,54
17,109,3292.039,1,98,110
17,110,5662.382,-1,50,52
17,111,2884.823,-1,110,89
17,112,12863.287,1,87,110
17,113,13077.122,-1,110,105
17,114,2517.831,1,80,96
17,115,5439.781999999998,1,80,86
17,116,9844.08,1,50,55
17,117,3222.062,-1,80,74
17,118,10498.829,1,45,50
17,119,8477.369,1,69,80
17,160,5097.561,-1,50,53
17,161,4035.593,-1,50,40
17,162,2430.067,1,80,88
17,163,6841.13,1,115,110
17,164,4750.34,1,103,110
17,165,4076.55,-1,90,80
17,166,5521.174,-1,80,72
17,167,9502.706,-1,93,80
17,168,5340.182,1,80,90
17,169,4030.4040000000014,-1,88,80
17,170,7517.559,-1,80,70
17,171,8643.44,1,80,93
17,172,8397.546999999999,1,82,80
17,173,5101.478,-1,50,41
17,174,6750.531999999997,1,96,110
17,175,10678.701000000001,-1,80,85
17,176,3040.401,-1,60,50
17,177,8784.855,-1,41,50
17,178,7283.052,-1,110,96
17,179,2988.272,1,72,80
17,180,2952.3790000000013,-1,49,50
17,181,4316.585,1,43,50
17,182,12613.208999999999,-1,51,50
17,183,8638.511999999999,-1,112,110
17,184,3047.884,1,40,50
17,185,4555.576,1,50,51
17,186,1776.5710000000001,-1,85,80
17,187,8255.091999999999,1,50,49
17,188,4504.07,-1,50,43
17,189,5685.101,-1,80,82
17,190,15205.986,1,50,60
17,191,4380.422000000001,-1,53,50
17,192,3073.4570000000012,-1,122,110
17,193,3444.0609999999997,1,67,80
17,194,17791.478,1,80,67
17,195,1860.2920000000001,1,70,80
17,196,3502.3190000000004,1,110,122
17,197,14815.108999999999,1,110,115
17,198,3301.886,-1,110,112
17,199,3517.441,1,110,103
18,40,7075.7980000000025,1,110,131
18,41,6712.44,1,47,50
18,42,4320.861,-1,50,44
18,43,6032.645,-1,57,50
18,44,6490.056,1,42,50
18,45,5453.4540000000015,1,108,110
18,46,8890.216999999999,1,78,80
18,47,3306.749000000001,-1,110,92
18,48,5462.7559999999985,-1,50,48
18,49,4068.0820000000003,-1,110,101
18,50,5324.076,-1,46,50
18,51,3127.3379999999997,1,80,83
18,52,5073.1579999999985,1,50,56
18,53,2805.1479999999997,1,50,47
18,54,2704.112,1,110,124
18,55,9469.143,-1,91,80
18,56,3309.7209999999995,1,64,80
18,57,3512.929,1,83,80
18,58,2829.821,1,101,110
18,59,7894.319,-1,56,50
18,60,4102.758,1,50,42
18,61,5442.824000000001,1,110,117
18,62,4131.013,-1,77,80
18,63,4778.66,1,80,91
18,64,3386.115,1,44,50
18,65,2518.0679999999998,1,50,57
18,66,5298.538000000001,1,50,46
18,67,3416.423,-1,110,108
18,68,3039.393,-1,133,110
18,69,2373.224,-1,131,110
18,70,5304.009,-1,126,110
18,71,2315.723,1,110,133
18,72,3882.361,1,110,126
18,73,3421.09,-1,48,50
18,74,6181.335,-1,80,77
18,75,4822.684,-1,117,110
18,76,5032.7170000000015,-1,80,64
18,77,4728.562,-1,80,78
18,78,5177.705,-1,124,110
18,79,3390.173,1,92,110
18,120,6173.666,-1,128,110
18,121,3306.925,1,50,58
18,122,6664.722,-1,54,50
18,123,6250.446,-1,80,69
18,124,3739.708,1,105,110
18,125,7016.376,-1,55,50
18,126,2834.9240000000004,-1,96,80
18,127,7416.059,1,80,75
18,128,2708.862,1,110,128
18,129,3080.123,-1,59,50
18,130,5181.807,1,110,119
18,131,7452.204000000002,1,52,50
18,132,2372.702,-1,58,50
18,133,10680.274,1,119,110
18,134,6787.8009999999995,1,74,80
18,135,6399.58,-1,86,80
18,136,1399.156,1,66,80
18,137,2122.0660000000007,1,50,59
18,138,3394.367,1,94,110
18,139,4659.232,-1,110,87
18,140,6347.686,-1,75,80
18,141,4806.331,1,50,45
18,142,3109.0609999999997,1,89,110
18,143,4449.014,1,80,94
18,144,3725.623,-1,110,98
18,145,4789.33,-1,94,80
18,146,4982.5329999999985,-1,110,94
18,147,3483.972,-1,80,66
18,148,6542.814,1,50,54
18,149,2421.26,1,98,110
18,150,5013.56,1,50,52
18,151,2292.479,-1,110,89
18,152,2516.337,1,87,110
18,153,5471.705,1,110,105
18,154,3739.22,1,80,96
18,155,5058.54,1,80,86
18,156,2488.417,1,50,55
18,157,3917.8559999999998,1,80,74
18,158,2324.17,1,45,50
18,159,3251.9040000000005,1,69,80
18,200,4483.769,1,50,53
18,201,4823.128,-1,50,40
18,202,4383.019,1,80,88
18,203,3856.2709999999997,-1,115,110
18,204,6145.3830000000025,1,103,110
18,205,6684.0019999999995,-1,90,80
18,206,4152.188,-1,80,72
18,207,5040.3290000000015,-1,93,80
18,208,3192.435,1,80,90
18,209,5972.8409999999985,1,88,80
18,210,4411.7,-1,80,70
18,211,2609.029,1,80,93
18,212,6391.76,1,82,80
18,213,1840.682,-1,50,41
18,214,2030.775,1,96,110
18,215,2881.835,-1,80,85
18,216,3080.954,-1,60,50
18,217,3003.969,1,41,50
18,218,5303.755,-1,110,96
18,219,5176.889,1,72,80
18,220,3426.235,1,49,50
18,221,3665.522,1,43,50
18,222,4475.915,-1,51,50
18,223,6056.958000000001,-1,112,110
18,224,2049.054,1,40,50
18,225,5343.713000000002,1,50,51
18,226,8228.405,1,85,80
18,227,5846.507,-1,50,49
18,228,4909.27,-1,50,43
18,229,5775.86,-1,80,82
18,230,4950.632000000001,1,50,60
18,231,5227.608,-1,53,50
18,232,4857.927,-1,122,110
18,233,2799.935,1,67,80
18,234,4223.308,-1,80,67
18,235,3835.2459999999996,1,70,80
18,236,6018.67,1,110,122
18,237,7156.7980000000025,1,110,115
18,238,9089.21,-1,110,112
18,239,2933.12,-1,110,103
19,40,6475.39,1,110,131
19,41,5457.523,1,47,50
19,42,3612.663,1,50,44
19,43,2453.851,-1,57,50
19,44,2498.278,1,42,50
19,45,3784.341,-1,108,110
19,46,3312.037000000001,1,78,80
19,47,2071.87,-1,110,92
19,48,2598.527,1,50,48
19,49,8246.877,1,110,101
19,50,4932.687,1,46,50
19,51,5044.238,-1,80,83
19,52,3705.313,1,50,56
19,53,5147.894,1,50,47
19,54,2795.16,1,110,124
19,55,3196.865,-1,91,80
19,56,1691.781,1,64,80
19,57,3112.119,1,83,80
19,58,4105.096,1,101,110
19,59,2207.0389999999998,-1,56,50
19,60,2066.6279999999997,-1,50,42
19,61,3205.343,1,110,117
19,62,1857.539,1,77,80
19,63,4413.562,1,80,91
19,64,1605.789,1,44,50
19,65,1532.701,1,50,57
19,66,2053.726,-1,50,46
19,67,7380.932,-1,110,108
19,68,2119.062,-1,133,110
19,69,3491.948,-1,131,110
19,70,2192.8289999999997,-1,126,110
19,71,2675.105,1,110,133
19,72,4438.233,-1,110,126
19,73,2502.728,-1,48,50
19,74,2094.72,-1,80,77
19,75,1977.1529999999998,-1,117,110
19,76,3124.778,-1,80,64
19,77,3230.196,1,80,78
19,78,5512.344,-1,124,110
19,79,5433.436,1,92,110
19,120,4996.449000000001,-1,128,110
19,121,3088.427,1,50,58
19,122,1749.507,-1,54,50
19,123,2484.297,-1,80,69
19,124,2170.206,1,105,110
19,125,2467.256,-1,55,50
19,126,2455.8779999999997,-1,96,80
19,127,2301.282,1,80,75
19,128,2820.303,1,110,128
19,129,2337.382,1,59,50
19,130,2160.222,1,110,119
19,131,2275.866,1,52,50
19,132,2485.7729999999997,-1,58,50
19,133,2318.966,-1,119,110
19,134,1684.058,1,74,80
19,135,3506.2859999999996,-1,86,80
19,136,4650.377,1,66,80
19,137,11545.02,1,50,59
19,138,2498.708,1,94,110
19,139,4453.313,-1,110,87
19,140,5902.98,-1,75,80
19,141,1932.701,-1,50,45
19,142,3714.698,1,89,110
19,143,2244.891,1,80,94
19,144,2143.856,-1,110,98
19,145,1826.174,-1,94,80
19,146,2775.116,1,110,94
19,147,2241.94,-1,80,66
19,148,1525.192,1,50,54
19,149,1661.692,1,98,110
19,150,1982.42,1,50,52
19,151,2120.9829999999997,-1,110,89
19,152,1491.5179999999998,1,87,110
19,153,3125.084000000001,1,110,105
19,154,2151.2889999999998,1,80,96
19,155,2179.7129999999997,1,80,86
19,156,1432.141,1,50,55
19,157,1377.872,1,80,74
19,158,2309.258,1,45,50
19,159,1547.858,1,69,80
19,200,2820.587,1,50,53
19,201,1704.6589999999999,-1,50,40
19,202,5033.169,-1,80,88
19,203,2697.7059999999997,-1,115,110
19,204,1747.092,1,103,110
19,205,2692.379000000001,-1,90,80
19,206,4167.55,1,80,72
19,207,1764.523,-1,93,80
19,208,1728.3110000000001,1,80,90
19,209,2294.46,-1,88,80
19,210,2101.04,-1,80,70
19,211,1214.529,1,80,93
19,212,2307.7129999999997,-1,82,80
19,213,1943.765,-1,50,41
19,214,2984.033,1,96,110
19,215,1332.618,1,80,85
19,216,1997.231,-1,60,50
19,217,1159.195,1,41,50
19,218,3082.875,-1,110,96
19,219,1549.754,1,72,80
19,220,1515.6889999999999,1,49,50
19,221,1488.156,1,43,50
19,222,1897.56,-1,51,50
19,223,7088.219,1,112,110
19,224,1622.0810000000001,1,40,50
19,225,1302.495,1,50,51
19,226,2427.401,-1,85,80
19,227,1189.172,1,50,49
19,228,2249.489,-1,50,43
19,229,1565.388,1,80,82
19,230,1388.035,1,50,60
19,231,1375.454,1,53,50
19,232,3890.676,-1,122,110
19,233,1456.266,1,67,80
19,234,1537.374,-1,80,67
19,235,2288.9429999999998,-1,70,80
19,236,3323.84,1,110,122
19,237,1529.707,1,110,115
19,238,2465.5029999999997,-1,110,112
19,239,1531.8410000000001,1,110,103
20,0,3096.527,1,110,131
20,1,4804.017,1,47,50
20,2,4758.3420000000015,-1,50,44
20,3,11233.854,-1,57,50
20,4,2826.187,1,42,50
20,5,7828.68,1,108,110
20,6,2204.8779999999997,1,78,80
20,7,11649.615,-1,110,92
20,8,4665.718,-1,50,48
20,9,5082.372,-1,110,101
20,10,8662.197,-1,46,50
20,11,4227.617,1,80,83
20,12,2754.283,1,50,56
20,13,11298.604,1,50,47
20,14,10917.788,1,110,124
20,15,5971.618,-1,91,80
20,16,1915.9460000000001,1,64,80
20,17,6732.477,-1,83,80
20,18,7365.374,-1,101,110
20,19,8669.064,-1,56,50
20,20,1765.141,1,50,42
20,21,6596.93,1,110,117
20,22,2827.474,1,77,80
20,23,4541.507000000001,1,80,91
20,24,1557.1429999999998,1,44,50
20,25,10289.994,1,50,57
20,26,7554.635999999998,-1,50,46
20,27,8190.703,-1,110,108
20,28,4776.085999999998,-1,133,110
20,29,8277.179,-1,131,110
20,30,10069.583,-1,126,110
20,31,9180.159,1,110,133
20,32,11577.07,1,110,126
20,33,9246.755,1,48,50
20,34,6187.4119999999975,-1,80,77
20,35,9929.634,-1,117,110
20,36,15696.76,-1,80,64
20,37,17802.511000000002,-1,80,78
20,38,8895.783000000001,-1,124,110
20,39,5490.979,1,92,110
20,80,3294.4109999999996,-1,128,110
20,81,2209.8520000000008,1,50,58
20,82,3181.828,-1,54,50
20,83,5088.622,-1,80,69
20,84,1506.849,1,105,110
20,85,1570.0529999999999,1,55,50
20,86,1812.3110000000001,-1,96,80
20,87,4295.981,-1,80,75
20,88,2363.489,1,110,128
20,89,2703.242,-1,59,50
20,90,2496.354,1,110,119
20,91,1525.454,1,52,50
20,92,1282.81,1,58,50
20,93,7640.016,1,119,110
20,94,1619.68,1,74,80
20,95,3026.844,1,86,80
20,96,2465.649,1,66,80
20,97,1231.4460000000001,1,50,59
20,98,1580.251,1,94,110
20,99,3363.672,-1,110,87
20,100,2525.554,1,75,80
20,101,4689.724,-1,50,45
20,102,1496.4470000000001,1,89,110
20,103,3672.478,1,80,94
20,104,4749.541,-1,110,98
20,105,4006.099,-1,94,80
20,106,7331.9980000000005,-1,110,94
20,107,2698.953,-1,80,66
20,108,2591.545,1,50,54
20,109,2714.388,1,98,110
20,110,1393.027,1,50,52
20,111,2143.869,-1,110,89
20,112,1678.118,1,87,110
20,113,1719.4660000000001,1,110,105
20,114,2563.033,1,80,96
20,115,3619.667,1,80,86
20,116,1547.646,1,50,55
20,117,3393.361,-1,80,74
20,118,3168.93,1,45,50
20,119,3071.428,-1,69,80
20,160,2580.315,-1,50,53
20,161,2722.5759999999996,-1,50,40
20,162,2938.429,1,80,88
20,163,3295.7070000000012,1,115,110
20,164,3683.539,1,103,110
20,165,8249.112,-1,90,80
20,166,2994.583,-1,80,72
20,167,6765.163000000001,-1,93,80
20,168,1664.4279999999999,1,80,90
20,169,7255.334,1,88,80
20,170,2815.348,1,80,70
20,171,1796.995,1,80,93
20,172,6647.187,-1,82,80
20,173,3679.261,-1,50,41
20,174,3383.7859999999996,1,96,110
20,175,2207.859,1,80,85
20,176,2432.117,-1,60,50
20,177,1801.239,1,41,50
20,178,3039.0559999999996,-1,110,96
20,179,1626.9260000000006,1,72,80
20,180,1264.083,1,49,50
20,181,2635.446,1,43,50
20,182,2029.8020000000001,1,51,50
20,183,9669.532,-1,112,110
20,184,3250.198,1,40,50
20,185,3584.592,1,50,51
20,186,9227.558,-1,85,80
20,187,4733.854,-1,50,49
20,188,4125.917,-1,50,43
20,189,3572.783,1,80,82
20,190,3036.824,1,50,60
20,191,4321.795,-1,53,50
20,192,6443.981,-1,122,110
20,193,1617.9779999999994,1,67,80
20,194,1749.96,1,80,67
20,195,1634.681,1,70,80
20,196,1437.0829999999999,1,110,122
20,197,3759.423,-1,110,115
20,198,3647.6040000000003,1,110,112
20,199,1670.559,1,110,103
21,40,5262.201999999998,1,110,131
21,41,3953.324,1,47,50
21,42,4835.736,1,50,44
21,43,4328.684,1,57,50
21,44,1911.6979999999999,1,42,50
21,45,4664.565,-1,108,110
21,46,2470.485,1,78,80
21,47,2263.966,-1,110,92
21,48,3684.645,-1,50,48
21,49,4214.2829999999985,-1,110,101
21,50,4624.009,1,46,50
21,51,3334.248,1,80,83
21,52,1743.815,1,50,56
21,53,4974.428,1,50,47
21,54,2620.409,1,110,124
21,55,3978.578,-1,91,80
21,56,2625.949,1,64,80
21,57,3474.8,1,83,80
21,58,5071.145,-1,101,110
21,59,1460.254,1,56,50
21,60,3064.178,-1,50,42
21,61,2287.493,1,110,117
21,62,7187.3719999999985,1,77,80
21,63,1755.19,1,80,91
21,64,1357.483,1,44,50
21,65,1727.756,1,50,57
21,66,7173.995,-1,50,46
21,67,4887.55,1,110,108
21,68,2929.147,-1,133,110
21,69,2791.7540000000013,-1,131,110
21,70,3715.5840000000003,-1,126,110
21,71,2184.235,1,110,133
21,72,1333.0739999999996,1,110,126
21,73,3809.032,1,48,50
21,74,3733.4809999999998,1,80,77
21,75,6625.593000000003,1,117,110
21,76,3065.9240000000004,-1,80,64
21,77,2294.965,1,80,78
21,78,5545.179,-1,124,110
21,79,3858.118,1,92,110
21,120,3927.783,-1,128,110
21,121,2346.591,1,50,58
21,122,2281.117,1,54,50
21,123,2012.4360000000001,-1,80,69
21,124,4045.1929999999998,1,105,110
21,125,2741.112,-1,55,50
21,126,1764.354,-1,96,80
21,127,5100.177,-1,80,75
21,128,2564.103,1,110,128
21,129,3870.127,-1,59,50
21,130,3701.4640000000004,1,110,119
21,131,8908.739,-1,52,50
21,132,5423.255,-1,58,50
21,133,3533.67,-1,119,110
21,134,2659.0229999999997,1,74,80
21,135,2188.129,-1,86,80
21,136,2611.263,1,66,80
21,137,2174.234,1,50,59
21,138,2799.173,1,94,110
21,139,1889.2089999999998,-1,110,87
21,140,2365.4610000000002,1,75,80
21,141,4368.702,-1,50,45
21,142,2463.41,1,89,110
21,143,2663.583,1,80,94
21,144,2172.2129999999997,1,110,98
21,145,1703.131,-1,94,80
21,146,4571.52,1,110,94
21,147,3521.212,-1,80,66
21,148,3895.7329999999997,-1,50,54
21,149,2916.412000000001,1,98,110
21,150,3362.676,1,50,52
21,151,1545.4879999999994,-1,110,89
21,152,2022.807,1,87,110
21,153,2186.946,1,110,105
21,154,1891.139,1,80,96
21,155,8029.44,1,80,86
21,156,2919.296,1,50,55
21,157,3110.724,1,80,74
21,158,2221.779,1,45,50
21,159,3658.028,1,69,80
21,200,2400.215,1,50,53
21,201,4795.18,-1,50,40
21,202,2464.427,1,80,88
21,203,2582.984,-1,115,110
21,204,3333.14,-1,103,110
21,205,6205.311,-1,90,80
21,206,7904.323,1,80,72
21,207,3177.11,1,93,80
21,208,2096.738,1,80,90
21,209,1419.017,1,88,80
21,210,5425.3769999999995,-1,80,70
21,211,2963.507,1,80,93
21,212,3435.493,1,82,80
21,213,4322.837,-1,50,41
21,214,3453.615,1,96,110
21,215,3341.1409999999996,1,80,85
21,216,3487.366,-1,60,50
21,217,2448.685,1,41,50
21,218,1741.28,-1,110,96
21,219,2125.919,1,72,80
21,220,2296.95,-1,49,50
21,221,3825.6490000000003,-1,43,50
21,222,6548.938,-1,51,50
21,223,3613.055,1,112,110
21,224,1967.491,1,40,50
21,225,8515.563,1,50,51
21,226,4615.47,1,85,80
21,227,1932.855,-1,50,49
21,228,2072.021,1,50,43
21,229,4164.697,1,80,82
21,230,2067.636,1,50,60
21,231,8965.785,1,53,50
21,232,1657.8229999999999,-1,122,110
21,233,4773.458,1,67,80
21,234,1700.826,-1,80,67
21,235,1956.149,1,70,80
21,236,2339.862,1,110,122
21,237,2296.298,1,110,115
21,238,2008.652,1,110,112
21,239,3618.1079999999997,-1,110,103
22,0,4537.9929999999995,1,110,131
22,1,2586.9629999999997,1,47,50
22,2,3177.974,1,50,44
22,3,1960.35,-1,57,50
22,4,1274.41,1,42,50
22,5,1644.567,-1,108,110
22,6,3871.098,1,78,80
22,7,3338.173,-1,110,92
22,8,2504.4179999999997,-1,50,48
22,9,2644.842,-1,110,101
22,10,2817.4840000000013,1,46,50
22,11,3032.704,1,80,83
22,12,2405.77,1,50,56
22,13,3382.3779999999997,1,50,47
22,14,2201.455,1,110,124
22,15,1647.6070000000002,-1,91,80
22,16,4088.6009999999997,1,64,80
22,17,13138.447,1,83,80
22,18,1937.2220000000002,-1,101,110
22,19,1213.214,1,56,50
22,20,1389.5079999999994,1,50,42
22,21,3259.071,1,110,117
22,22,1555.1729999999998,1,77,80
22,23,5069.976,1,80,91
22,24,1336.3129999999999,1,44,50
22,25,1182.444,1,50,57
22,26,1338.95,1,50,46
22,27,1862.513,-1,110,108
22,28,2617.658,-1,133,110
22,29,4142.725,1,131,110
22,30,1432.219,1,126,110
22,31,3548.336,1,110,133
22,32,2776.5429999999997,1,110,126
22,33,4499.653,1,48,50
22,34,2747.788,1,80,77
22,35,2167.218,-1,117,110
22,36,4105.584,-1,80,64
22,37,2361.564,1,80,78
22,38,1730.479,-1,124,110
22,39,2481.226,1,92,110
22,80,2832.425,1,128,110
22,81,1245.847,1,50,58
22,82,5351.723000000001,1,54,50
22,83,2878.054,-1,80,69
22,84,5010.351,-1,105,110
22,85,1722.535,-1,55,50
22,86,3481.955,-1,96,80
22,87,3005.074,-1,80,75
22,88,2443.694,1,110,128
22,89,1336.9579999999999,1,59,50
22,90,1867.874,1,110,119
22,91,2857.047,-1,52,50
22,92,1027.907,1,58,50
22,93,2047.906,-1,119,110
22,94,2419.123,1,74,80
22,95,1235.95,1,86,80
22,96,1568.838,1,66,80
22,97,3832.7690000000002,1,50,59
22,98,4459.989000000001,1,94,110
22,99,1727.036,-1,110,87
22,100,1045.9080000000001,1,75,80
22,101,2923.584000000001,-1,50,45
22,102,1735.9279999999999,-1,89,110
22,103,1715.6229999999994,1,80,94
22,104,1720.2479999999994,-1,110,98
22,105,3814.1929999999998,-1,94,80
22,106,3350.17,-1,110,94
22,107,1875.777,1,80,66
22,108,1258.058,1,50,54
22,109,3335.248,1,98,110
22,110,4384.725,-1,50,52
22,111,1283.15,-1,110,89
22,112,1904.111,1,87,110
22,113,1966.8210000000001,-1,110,105
22,114,14660.622,-1,80,96
22,115,2734.725,1,80,86
22,116,2675.513,1,50,55
22,117,3280.808,-1,80,74
22,118,1183.132,1,45,50
22,119,1136.765,1,69,80
22,160,2690.545,1,50,53
22,161,2904.159,-1,50,40
22,162,2020.204,1,80,88
22,163,5823.0419999999995,1,115,110
22,164,2364.803,1,103,110
22,165,2087.627,1,90,80
22,166,1253.863,1,80,72
22,167,2354.439,1,93,80
22,168,1642.4070000000006,-1,80,90
22,169,3602.054,1,88,80
22,170,1140.405,1,80,70
22,171,1132.559,1,80,93
22,172,1035.3519999999999,1,82,80
22,173,3856.735,1,50,41
22,174,1972.125,1,96,110
22,175,1743.2179999999994,1,80,85
22,176,1954.868,1,60,50
22,177,2041.7060000000001,1,41,50
22,178,1993.6170000000002,1,110,96
22,179,3404.2340000000013,1,72,80
22,180,2069.967,1,49,50
22,181,2524.0460000000007,-1,43,50
22,182,1021.653,1,51,50
22,183,3057.357,1,112,110
22,184,1207.583,1,40,50
22,185,1852.45,1,50,51
22,186,1991.661,1,85,80
22,187,1258.405,1,50,49
22,188,1145.536,1,50,43
22,189,2516.649,1,80,82
22,190,1842.058,1,50,60
22,191,1980.1870000000001,1,53,50
22,192,1017.7189999999999,1,122,110
22,193,2228.271,1,67,80
22,194,1967.7839999999999,1,80,67
22,195,2396.256,1,70,80
22,196,1232.64,1,110,122
22,197,1559.9720000000002,1,110,115
22,198,1769.5610000000001,-1,110,112
22,199,2482.277,1,110,103
23,40,2344.062,1,110,131
23,41,4627.984,1,47,50
23,42,2976.171,-1,50,44
23,43,5534.2890000000025,-1,57,50
23,44,6015.648,1,42,50
23,45,5201.6590000000015,-1,108,110
23,46,9036.964,1,78,80
23,47,2203.778,-1,110,92
23,48,3222.26,-1,50,48
23,49,3193.828,-1,110,101
23,50,7236.065,1,46,50
23,51,4608.862,1,80,83
23,52,5553.779,1,50,56
23,53,1702.086,-1,50,47
23,54,6570.668000000002,-1,110,124
23,55,6377.001,-1,91,80
23,56,2698.1740000000004,1,64,80
23,57,5340.3690000000015,1,83,80
23,58,2953.7790000000005,1,101,110
23,59,3482.959000000001,-1,56,50
23,60,1713.165,-1,50,42
23,61,4477.442,1,110,117
23,62,4010.07,1,77,80
23,63,4995.276,1,80,91
23,64,6005.393,1,44,50
23,65,7086.972,1,50,57
23,66,10712.993,-1,50,46
23,67,3501.092,-1,110,108
23,68,3416.171,-1,133,110
23,69,6492.763000000001,1,131,110
23,70,2468.641,-1,126,110
23,71,3639.825,1,110,133
23,72,2461.623,1,110,126
23,73,5899.174,1,48,50
23,74,8113.496,1,80,77
23,75,6384.6619999999975,-1,117,110
23,76,1466.661,-1,80,64
23,77,3374.687,1,80,78
23,78,4830.295,-1,124,110
23,79,2760.83,1,92,110
23,120,2978.324,-1,128,110
23,121,2394.95,1,50,58
23,122,4043.489,-1,54,50
23,123,3110.236,-1,80,69
23,124,2338.1620000000007,1,105,110
23,125,1902.047,-1,55,50
23,126,3217.385,-1,96,80
23,127,4795.25,-1,80,75
23,128,2186.1,1,110,128
23,129,1925.543,-1,59,50
23,130,4451.032,-1,110,119
23,131,3095.197,-1,52,50
23,132,7624.385999999998,1,58,50
23,133,2704.1820000000002,-1,119,110
23,134,4213.814,1,74,80
23,135,3277.9109999999996,-1,86,80
23,136,1742.037,1,66,80
23,137,1585.672,1,50,59
23,138,2365.385,1,94,110
23,139,2278.348,-1,110,87
23,140,3189.7070000000012,1,75,80
23,141,5392.648,-1,50,45
23,142,2210.893,1,89,110
23,143,3352.195,1,80,94
23,144,4265.469,1,110,98
23,145,8368.841,-1,94,80
23,146,3526.597,-1,110,94
23,147,3109.1929999999998,-1,80,66
23,148,4880.3409999999985,-1,50,54
23,149,1698.8010000000006,1,98,110
23,150,3014.328,1,50,52
23,151,5611.193,-1,110,89
23,152,2165.3,1,87,110
23,153,4414.14,-1,110,105
23,154,4289.097,1,80,96
23,155,1643.3029999999999,1,80,86
23,156,2858.929,1,50,55
23,157,3979.11,-1,80,74
23,158,4881.373,1,45,50
23,159,2245.528,1,69,80
23,200,1875.905,1,50,53
23,201,2376.242,-1,50,40
23,202,1984.592,1,80,88
23,203,4864.56,-1,115,110
23,204,3147.067,1,103,110
23,205,6297.699000000001,1,90,80
23,206,2783.599,-1,80,72
23,207,3529.033,-1,93,80
23,208,5074.029,1,80,90
23,209,3747.942,-1,88,80
23,210,3567.828,1,80,70
23,211,2085.536,1,80,93
23,212,3857.72,-1,82,80
23,213,3532.94,-1,50,41
23,214,2868.798,1,96,110
23,215,2428.069,1,80,85
23,216,4224.684,-1,60,50
23,217,2737.177,1,41,50
23,218,3647.591,-1,110,96
23,219,1696.7220000000002,1,72,80
23,220,8186.4630000000025,1,49,50
23,221,8628.347,1,43,50
23,222,4808.653,-1,51,50
23,223,7458.3380000000025,-1,112,110
23,224,2172.229,1,40,50
23,225,4388.031,-1,50,51
23,226,5195.435,1,85,80
23,227,5465.185,-1,50,49
23,228,7167.638000000001,1,50,43
23,229,7094.661,1,80,82
23,230,2298.996,1,50,60
23,231,5971.541,1,53,50
23,232,6903.541,-1,122,110
23,233,1808.105,1,67,80
23,234,6005.364000000001,-1,80,67
23,235,2137.484,1,70,80
23,236,2025.05,1,110,122
23,237,4421.108,1,110,115
23,238,6405.4259999999995,-1,110,112
23,239,3406.5809999999997,-1,110,103
24,0,13446.646999999999,1,110,131
24,1,14524.851,1,47,50
24,2,8482.831,-1,50,44
24,3,7790.284000000002,-1,57,50
24,4,8137.0830000000005,1,42,50
24,5,15677.821000000002,1,108,110
24,6,10911.268999999998,1,78,80
24,7,6553.163000000001,-1,110,92
24,8,2662.425,1,50,48
24,9,8306.192,-1,110,101
24,10,5601.945,1,46,50
24,11,6247.111999999999,1,80,83
24,12,2528.041,1,50,56
24,13,14967.923999999999,1,50,47
24,14,3203.7329999999997,1,110,124
24,15,8905.4,-1,91,80
24,16,15783.087,1,64,80
24,17,8126.1230000000005,-1,83,80
24,18,11386.066,-1,101,110
24,19,4852.127,-1,56,50
24,20,11320.056999999999,1,50,42
24,21,4958.222,1,110,117
24,22,5720.845,1,77,80
24,23,2867.3190000000004,1,80,91
24,24,12566.805,1,44,50
24,25,2622.717,1,50,57
24,26,3022.98,1,50,46
24,27,5129.2170000000015,-1,110,108
24,28,6388.74,-1,133,110
24,29,3102.868,-1,131,110
24,30,3448.079,-1,126,110
24,31,2074.678,1,110,133
24,32,2311.138,1,110,126
24,33,20040.576,-1,48,50
24,34,14313.706,1,80,77
24,35,2068.984,1,117,110
24,36,6688.034000000002,-1,80,64
24,37,3621.703,1,80,78
24,38,4192.496,-1,124,110
24,39,1830.987,1,92,110
24,80,4405.112,1,128,110
24,81,5138.55,1,50,58
24,82,4855.218,-1,54,50
24,83,5766.9519999999975,-1,80,69
24,84,2587.3779999999997,1,105,110
24,85,1895.944,1,55,50
24,86,2777.171,-1,96,80
24,87,5402.038000000001,-1,80,75
24,88,3141.014,1,110,128
24,89,4355.044,-1,59,50
24,90,2043.082,1,110,119
24,91,4459.518,-1,52,50
24,92,5189.438,-1,58,50
24,93,4414.155,-1,119,110
24,94,3179.9,1,74,80
24,95,7117.9969999999985,1,86,80
24,96,8100.37,1,66,80
24,97,10991.32,1,50,59
24,98,3808.033,1,94,110
24,99,3128.2059999999997,-1,110,87
24,100,7991.005,-1,75,80
24,101,4034.8179999999998,-1,50,45
24,102,2980.009,1,89,110
24,103,4047.4359999999997,1,80,94
24,104,5109.372,-1,110,98
24,105,8951.546999999999,-1,94,80
24,106,10596.642,-1,110,94
24,107,8235.019,-1,80,66
24,108,3631.5159999999996,1,50,54
24,109,5048.949000000001,1,98,110
24,110,4187.9209999999985,1,50,52
24,111,2787.595,-1,110,89
24,112,2740.276,1,87,110
24,113,2924.485,-1,110,105
24,114,1756.037,1,80,96
24,115,2077.14,1,80,86
24,116,2617.624,1,50,55
24,117,6354.7559999999985,1,80,74
24,118,4187.163,1,45,50
24,119,2305.712,1,69,80
24,160,4691.508,1,50,53
24,161,4739.589,-1,50,40
24,162,1773.614,1,80,88
24,163,4930.746,1,115,110
24,164,3031.8590000000013,1,103,110
24,165,2542.756,-1,90,80
24,166,2181.946,1,80,72
24,167,5720.0880000000025,-1,93,80
24,168,2166.239,1,80,90
24,169,2670.265,-1,88,80
24,170,3263.573,-1,80,70
24,171,7003.096,-1,80,93
24,172,4127.0779999999995,1,82,80
24,173,6665.635,-1,50,41
24,174,2597.019,1,96,110
24,175,3825.9179999999997,1,80,85
24,176,3159.739,1,60,50
24,177,6027.076,1,41,50
24,178,7100.333000000001,1,110,96
24,179,3118.869,1,72,80
24,180,3551.592,1,49,50
24,181,1701.295,1,43,50
24,182,11519.87,1,51,50
24,183,2257.657,-1,112,110
24,184,1902.204,1,40,50
24,185,3278.506,-1,50,51
24,186,5836.7559999999985,1,85,80
24,187,6428.128000000002,-1,50,49
24,188,3240.047,1,50,43
24,189,2056.268,1,80,82
24,190,2066.19,1,50,60
24,191,6681.316,-1,53,50
24,192,9861.942,-1,122,110
24,193,2324.637,1,67,80
24,194,6921.754,-1,80,67
24,195,2406.314,1,70,80
24,196,2452.491,1,110,122
24,197,2897.344,1,110,115
24,198,3221.2790000000005,1,110,112
24,199,6580.304,1,110,103
25,40,2573.855,1,110,131
25,41,2276.933,1,47,50
25,42,6313.4230000000025,-1,50,44
25,43,4063.28,-1,57,50
25,44,2272.777,1,42,50
25,45,7273.9130000000005,1,108,110
25,46,7112.329000000002,-1,78,80
25,47,4954.129,-1,110,92
25,48,7277.9919999999975,-1,50,48
25,49,10290.151,1,110,101
25,50,2719.824,1,46,50
25,51,4433.277,-1,80,83
25,52,2834.537000000001,1,50,56
25,53,3205.162000000001,1,50,47
25,54,7905.951,1,110,124
25,55,9726.995,-1,91,80
25,56,5668.465,1,64,80
25,57,6087.764,1,83,80
25,58,5074.383,1,101,110
25,59,5837.491,-1,56,50
25,60,10204.94,-1,50,42
25,61,4410.447,1,110,117
25,62,3228.403,1,77,80
25,63,3140.789,1,80,91
25,64,5966.109,1,44,50
25,65,2245.362,1,50,57
25,66,5074.143,1,50,46
25,67,3602.406,-1,110,108
25,68,6713.8809999999985,-1,133,110
25,69,8546.707,-1,131,110
25,70,8338.258,1,126,110
25,71,2436.319,1,110,133
25,72,4491.683,1,110,126
25,73,6058.228,1,48,50
25,74,9096.82,-1,80,77
25,75,8202.511,1,117,110
25,76,4408.043,-1,80,64
25,77,8096.268,1,80,78
25,78,9448.103000000001,-1,124,110
25,79,2913.902,1,92,110
25,120,6615.1359999999995,-1,128,110
25,121,5430.728,1,50,58
25,122,7244.234,-1,54,50
25,123,9260.72,-1,80,69
25,124,6270.738,1,105,110
25,125,9983.241,-1,55,50
25,126,6964.184,-1,96,80
25,127,2931.4709999999995,-1,80,75
25,128,5759.629,1,110,128
25,129,3920.8,-1,59,50
25,130,10235.104,1,110,119
25,131,7471.273,1,52,50
25,132,4530.887,-1,58,50
25,133,4484.656,-1,119,110
25,134,9936.325,1,74,80
25,135,16153.568000000001,-1,86,80
25,136,3876.4809999999998,1,66,80
25,137,5081.794,1,50,59
25,138,7911.395,1,94,110
25,139,3683.9509999999996,-1,110,87
25,140,10024.49,1,75,80
25,141,6029.848000000001,-1,50,45
25,142,4898.047000000001,1,89,110
25,143,10050.235999999999,1,80,94
25,144,9459.282,-1,110,98
25,145,6726.878000000002,-1,94,80
25,146,4227.071,-1,110,94
25,147,2647.691,-1,80,66
25,148,4261.383,1,50,54
25,149,8863.916,-1,98,110
25,150,9317.731,1,50,52
25,151,5333.2040000000015,-1,110,89
25,152,2054.79,1,87,110
25,153,4031.1240000000003,-1,110,105
25,154,4050.9840000000004,1,80,96
25,155,2207.765,1,80,86
25,156,9500.898000000001,1,50,55
25,157,3232.877,-1,80,74
25,158,2478.6,1,45,50
25,159,2495.215,1,69,80
25,200,4797.221,1,50,53
25,201,4452.768,-1,50,40
25,202,2917.58,1,80,88
25,203,7974.6169999999975,-1,115,110
25,204,6034.191999999999,1,103,110
25,205,4698.9,-1,90,80
25,206,10533.239,-1,80,72
25,207,5401.655,-1,93,80
25,208,2049.3379999999997,1,80,90
25,209,6868.522,-1,88,80
25,210,8182.444,-1,80,70
25,211,2063.279,1,80,93
25,212,3914.6809999999996,-1,82,80
25,213,2949.97,-1,50,41
25,214,1976.3529999999998,1,96,110
25,215,1498.183,1,80,85
25,216,4731.632000000001,-1,60,50
25,217,2406.173,1,41,50
25,218,3846.133,-1,110,96
25,219,5041.701,1,72,80
25,220,3976.4390000000003,1,49,50
25,221,6041.11,1,43,50
25,222,10959.667,1,51,50
25,223,2929.594,-1,112,110
25,224,1842.8010000000002,1,40,50
25,225,9067.473,-1,50,51
25,226,9167.466999999999,-1,85,80
25,227,12136.964,-1,50,49
25,228,2698.169000000001,1,50,43
25,229,4628.875,1,80,82
25,230,3754.417,1,50,60
25,231,4177.62,-1,53,50
25,232,3395.0429999999997,-1,122,110
25,233,4928.446,1,67,80
25,234,2868.349,-1,80,67
25,235,9406.728000000001,1,70,80
25,236,7354.094,-1,110,122
25,237,7369.732,1,110,115
25,238,4304.4529999999995,1,110,112
25,239,3459.006,-1,110,103
26,0,3954.36,1,110,131
26,1,3430.104000000001,1,47,50
26,2,4790.332,-1,50,44
26,3,2293.717,-1,57,50
26,4,1600.204,1,42,50
26,5,3382.276,1,108,110
26,6,5924.823,-1,78,80
26,7,3778.703,1,110,92
26,8,5725.531999999997,-1,50,48
26,9,5110.1579999999985,1,110,101
26,10,2845.064000000001,1,46,50
26,11,4896.907,-1,80,83
26,12,3161.7340000000013,1,50,56
26,13,4104.913,1,50,47
26,14,3033.454,1,110,124
26,15,3098.95,-1,91,80
26,16,3006.867,1,64,80
26,17,2611.25,1,83,80
26,18,5021.21,-1,101,110
26,19,5364.196999999999,-1,56,50
26,20,15268.943000000001,-1,50,42
26,21,3485.132,-1,110,117
26,22,7177.329000000002,-1,77,80
26,23,3908.625,1,80,91
26,24,2896.952,1,44,50
26,25,7720.648,-1,50,57
26,26,2694.369,-1,50,46
26,27,5572.055,1,110,108
26,28,10583.331,-1,133,110
26,29,9587.822,-1,131,110
26,30,3651.797,-1,126,110
26,31,4992.643,1,110,133
26,32,4595.107,-1,110,126
26,33,4694.762,1,48,50
26,34,7557.36,1,80,77
26,35,2468.382,-1,117,110
26,36,3474.492,-1,80,64
26,37,2846.675,-1,80,78
26,38,2255.533,-1,124,110
26,39,3640.4179999999997,-1,92,110
26,80,6962.221,-1,128,110
26,81,3006.345,1,50,58
26,82,4687.366,1,54,50
26,83,2758.795,-1,80,69
26,84,2739.147,1,105,110
26,85,3927.039,-1,55,50
26,86,4294.75,-1,96,80
26,87,2454.979,1,80,75
26,88,2496.827,1,110,128
26,89,6324.076,1,59,50
26,90,11780.841,1,110,119
26,91,9034.696,-1,52,50
26,92,2735.087,-1,58,50
26,93,4886.065,-1,119,110
26,94,8591.544,1,74,80
26,95,5016.858,1,86,80
26,96,3983.4709999999995,-1,66,80
26,97,3944.317,1,50,59
26,98,3322.85,1,94,110
26,99,5648.852,-1,110,87
26,100,3192.225,1,75,80
26,101,5584.85,1,50,45
26,102,3800.955,-1,89,110
26,103,2762.2859999999996,1,80,94
26,104,2369.886,-1,110,98
26,105,4778.094,-1,94,80
26,106,3005.013,-1,110,94
26,107,3246.13,-1,80,66
26,108,2716.2090000000007,1,50,54
26,109,5576.069,-1,98,110
26,110,2473.1420000000007,1,50,52
26,111,3912.157,-1,110,89
26,112,3462.278,1,87,110
26,113,6806.876,-1,110,105
26,114,3689.885,1,80,96
26,115,4854.366,1,80,86
26,116,2165.553,1,50,55
26,117,2967.995,-1,80,74
26,118,2533.616,1,45,50
26,119,2814.158,-1,69,80
26,160,2681.53,1,50,53
26,161,6612.498000000001,-1,50,40
26,162,2543.025,1,80,88
26,163,3110.467,1,115,110
26,164,2827.555,1,103,110
26,165,2676.8070000000002,1,90,80
26,166,4946.576,-1,80,72
26,167,3069.2259999999997,-1,93,80
26,168,2909.776,1,80,90
26,169,2467.004,-1,88,80
26,170,2153.84,-1,80,70
26,171,2562.301,1,80,93
26,172,2594.663,-1,82,80
26,173,4674.205,-1,50,41
26,174,4044.829,1,96,110
26,175,3204.199,1,80,85
26,176,3188.2729999999997,1,60,50
26,177,1857.293,1,41,50
26,178,2550.861,-1,110,96
26,179,3109.8309999999997,1,72,80
26,180,3238.687,1,49,50
26,181,3525.7509999999997,1,43,50
26,182,3750.855,1,51,50
26,183,3371.85,1,112,110
26,184,3067.5440000000012,1,40,50
26,185,4316.018,1,50,51
26,186,5624.833000000001,1,85,80
26,187,5768.844,1,50,49
26,188,4310.734,-1,50,43
26,189,3845.923,1,80,82
26,190,5282.875,1,50,60
26,191,3154.4359999999997,1,53,50
26,192,3155.11,-1,122,110
26,193,3158.929,1,67,80
26,194,3323.8909999999996,1,80,67
26,195,4285.535,1,70,80
26,196,3362.2340000000013,1,110,122
26,197,5032.0920000000015,1,110,115
26,198,2523.751,1,110,112
26,199,5720.895,1,110,103
27,40,1634.2720000000006,1,110,131
27,41,3381.2509999999997,1,47,50
27,42,5654.203,-1,50,44
27,43,2911.667,-1,57,50
27,44,5072.245,-1,42,50
27,45,5156.361,-1,108,110
27,46,6440.121,-1,78,80
27,47,4220.8809999999985,-1,110,92
27,48,4035.792,-1,50,48
27,49,3726.873,-1,110,101
27,50,3927.085,-1,46,50
27,51,6430.405,-1,80,83
27,52,3712.042,-1,50,56
27,53,7043.878000000002,1,50,47
27,54,3192.7329999999997,1,110,124
27,55,7772.035,1,91,80
27,56,4538.813,1,64,80
27,57,4973.142,1,83,80
27,58,7627.573,1,101,110
27,59,8058.478,1,56,50
27,60,4196.297000000001,-1,50,42
27,61,8401.134,1,110,117
27,62,7273.249,-1,77,80
27,63,5805.11,1,80,91
27,64,6627.435,1,44,50
27,65,5796.05,-1,50,57
27,66,5306.809,-1,50,46
27,67,6284.7469999999985,-1,110,108
27,68,5995.246,1,133,110
27,69,6570.651,1,131,110
27,70,3542.327,-1,126,110
27,71,4593.874,-1,110,133
27,72,8201.263,1,110,126
27,73,2960.969,1,48,50
27,74,5422.187,-1,80,77
27,75,6118.182,-1,117,110
27,76,4753.687,1,80,64
27,77,6103.596,1,80,78
27,78,3166.2,1,124,110
27,79,2077.775,1,92,110
27,120,2793.1490000000013,-1,128,110
27,121,1761.971,1,50,58
27,122,2598.195,-1,54,50
27,123,1883.892,1,80,69
27,124,3591.9190000000012,1,105,110
27,125,2259.4829999999997,-1,55,50
27,126,1895.624,-1,96,80
27,127,2325.33,-1,80,75
27,128,1899.8110000000001,1,110,128
27,129,2326.667,-1,59,50
27,130,1969.001,1,110,119
27,131,2065.614,-1,52,50
27,132,2554.223,-1,58,50
27,133,2516.719,-1,119,110
27,134,1687.995,1,74,80
27,135,4735.542,-1,86,80
27,136,1879.412,-1,66,80
27,137,1839.355,1,50,59
27,138,1714.704,1,94,110
27,139,2315.388,-1,110,87
27,140,3015.833,1,75,80
27,141,2288.812,-1,50,45
27,142,1425.4879999999994,1,89,110
27,143,3827.167,1,80,94
27,144,3103.408,-1,110,98
27,145,3757.802,-1,94,80
27,146,4216.771,1,110,94
27,147,2605.5589999999997,-1,80,66
27,148,3330.238,-1,50,54
27,149,3604.612,1,98,110
27,150,4480.564,1,50,52
27,151,2731.316,-1,110,89
27,152,3602.4320000000002,1,87,110
27,153,3767.7659999999996,1,110,105
27,154,5021.5909999999985,1,80,96
27,155,5970.427,1,80,86
27,156,3998.942,1,50,55
27,157,4672.95,-1,80,74
27,158,4111.8420000000015,1,45,50
27,159,3268.259,1,69,80
27,200,2048.9610000000002,1,50,53
27,201,2841.402,-1,50,40
27,202,4139.177,1,80,88
27,203,4477.379,-1,115,110
27,204,2071.375,-1,103,110
27,205,4195.264,-1,90,80
27,206,2468.563,-1,80,72
27,207,2853.2929999999997,-1,93,80
27,208,3875.861,1,80,90
27,209,3800.704,-1,88,80
27,210,2758.2,-1,80,70
27,211,4489.419,1,80,93
27,212,4576.46,-1,82,80
27,213,2232.776,-1,50,41
27,214,3329.848,1,96,110
27,215,4914.487,1,80,85
27,216,4604.038,1,60,50
27,217,2672.665,-1,41,50
27,218,4926.9259999999995,1,110,96
27,219,4475.167,1,72,80
27,220,3143.6679999999997,-1,49,50
27,221,6849.225,-1,43,50
27,222,2395.993,-1,51,50
27,223,3890.698,-1,112,110
27,224,5010.068,1,40,50
27,225,3374.6859999999997,-1,50,51
27,226,2589.66,-1,85,80
27,227,3277.458,-1,50,49
27,228,4888.513,1,50,43
27,229,3538.1740000000004,1,80,82
27,230,2017.2320000000002,1,50,60
27,231,7481.734,-1,53,50
27,232,3836.637,-1,122,110
27,233,2667.1659999999997,1,67,80
27,234,4229.895,-1,80,67
27,235,4699.266,1,70,80
27,236,1650.606,1,110,122
27,237,3467.038,1,110,115
27,238,2262.936,1,110,112
27,239,6140.96,-1,110,103
28,0,2420.685,1,110,131
28,1,3499.1679999999997,1,47,50
28,2,2986.17,-1,50,44
28,3,5100.094,-1,57,50
28,4,1725.954,1,42,50
28,5,2108.725,1,108,110
28,6,1724.844,1,78,80
28,7,2432.7929999999997,-1,110,92
28,8,1830.7920000000001,1,50,48
28,9,1901.4379999999999,-1,110,101
28,10,1768.9479999999999,1,46,50
28,11,1780.24,-1,80,83
28,12,1923.951,-1,50,56
28,13,1376.2120000000002,-1,50,47
28,14,1570.3429999999994,1,110,124
28,15,1976.101,1,91,80
28,16,2043.473,1,64,80
28,17,2049.897,1,83,80
28,18,1996.7279999999998,1,101,110
28,19,2073.991,1,56,50
28,20,2177.599,1,50,42
28,21,1628.771,-1,110,117
28,22,1985.741,1,77,80
28,23,2123.308,1,80,91
28,24,1968.519,1,44,50
28,25,2070.9320000000002,1,50,57
28,26,2660.077,-1,50,46
28,27,2584.98,-1,110,108
28,28,2274.049,-1,133,110
28,29,1861.168,-1,131,110
28,30,2473.36,-1,126,110
28,31,1736.281,1,110,133
28,32,1742.155,1,110,126
28,33,2913.099,-1,48,50
28,34,2627.482,-1,80,77
28,35,1826.2939999999999,-1,117,110
28,36,1354.626,-1,80,64
28,37,1646.504,-1,80,78
28,38,2885.32,-1,124,110
28,39,1566.876,1,92,110
28,80,4468.678,-1,128,110
28,81,1771.2379999999994,-1,50,58
28,82,2045.7979999999998,1,54,50
28,83,2012.281,1,80,69
28,84,5198.2,1,105,110
28,85,4256.2170000000015,-1,55,50
28,86,1661.0929999999994,1,96,80
28,87,2058.237,1,80,75
28,88,2207.346,-1,110,128
28,89,2443.7729999999997,-1,59,50
28,90,4032.071,1,110,119
28,91,5208.3409999999985,-1,52,50
28,92,5404.922,-1,58,50
28,93,2616.782,-1,119,110
28,94,3760.1490000000003,1,74,80
28,95,3205.0409999999997,1,86,80
28,96,4463.401,1,66,80
28,97,1761.095,1,50,59
28,98,2115.848,1,94,110
28,99,1370.259,-1,110,87
28,100,1849.079,1,75,80
28,101,1562.185,-1,50,45
28,102,1564.402,1,89,110
28,103,2548.512,1,80,94
28,104,2215.732,-1,110,98
28,105,1978.714,-1,94,80
28,106,1413.6779999999999,-1,110,94
28,107,1406.06,-1,80,66
28,108,1984.556,-1,50,54
28,109,1729.361,-1,98,110
28,110,1893.5870000000002,1,50,52
28,111,1659.555,-1,110,89
28,112,1861.601,1,87,110
28,113,2189.725,-1,110,105
28,114,1472.016,1,80,96
28,115,2468.265,-1,80,86
28,116,1835.74,1,50,55
28,117,2070.189,1,80,74
28,118,1764.396,1,45,50
28,119,2566.94,1,69,80
28,160,2159.33,-1,50,53
28,161,2488.7129999999997,-1,50,40
28,162,1611.4720000000002,1,80,88
28,163,1414.435,-1,115,110
28,164,2200.57,1,103,110
28,165,2157.9320000000002,1,90,80
28,166,1588.725,1,80,72
28,167,1140.825,-1,93,80
28,168,1770.7839999999999,1,80,90
28,169,1158.955,-1,88,80
28,170,1323.297,-1,80,70
28,171,1678.715,1,80,93
28,172,2269.262,-1,82,80
28,173,2093.765,-1,50,41
28,174,2250.652,1,96,110
28,175,2292.908,1,80,85
28,176,2159.21,1,60,50
28,177,1787.445,1,41,50
28,178,1305.127,-1,110,96
28,179,1742.888,1,72,80
28,180,1798.86,1,49,50
28,181,1404.8670000000006,1,43,50
28,182,3310.125,1,51,50
28,183,2951.5290000000005,-1,112,110
28,184,2557.18,1,40,50
28,185,1978.016,1,50,51
28,186,2645.0229999999997,1,85,80
28,187,1501.464,1,50,49
28,188,1488.4660000000001,-1,50,43
28,189,1986.598,1,80,82
28,190,1781.49,1,50,60
28,191,2184.1279999999997,-1,53,50
28,192,1408.63,-1,122,110
28,193,1646.805,1,67,80
28,194,2586.6479999999997,-1,80,67
28,195,2204.263,1,70,80
28,196,2057.507,-1,110,122
28,197,1726.4279999999999,1,110,115
28,198,1897.421,1,110,112
28,199,2529.854,-1,110,103
29,40,2625.011,1,110,131
29,41,2022.2520000000002,1,47,50
29,42,1587.345,-1,50,44
29,43,2544.321,1,57,50
29,44,1134.701,1,42,50
29,45,2711.4320000000002,1,108,110
29,46,2270.95,1,78,80
29,47,1572.9920000000006,-1,110,92
29,48,1417.839,1,50,48
29,49,1800.773,-1,110,101
29,50,2680.177,1,46,50
29,51,1480.3010000000006,1,80,83
29,52,2127.9829999999997,1,50,56
29,53,1363.34,1,50,47
29,54,2241.911,1,110,124
29,55,1507.8429999999994,-1,91,80
29,56,1436.8870000000006,1,64,80
29,57,2441.337,1,83,80
29,58,2046.589,1,101,110
29,59,3059.759,1,56,50
29,60,2743.615,-1,50,42
29,61,2354.465,1,110,117
29,62,1772.96,-1,77,80
29,63,1193.7830000000001,1,80,91
29,64,1566.408,1,44,50
29,65,2047.3110000000001,-1,50,57
29,66,3993.035,-1,50,46
29,67,3554.465,-1,110,108
29,68,1699.0120000000006,-1,133,110
29,69,1700.664,-1,131,110
29,70,1732.599,-1,126,110
29,71,1333.759,1,110,133
29,72,3034.337,-1,110,126
29,73,1806.0220000000002,1,48,50
29,74,2526.978,1,80,77
29,75,1565.227,-1,117,110
29,76,1795.685,-1,80,64
29,77,2020.0079999999998,1,80,78
29,78,1867.2220000000002,-1,124,110
29,79,1173.69,1,92,110
29,120,2785.5229999999997,-1,128,110
29,121,1348.098,1,50,58
29,122,2232.8070000000002,1,54,50
29,123,2035.471,-1,80,69
29,124,1881.036,1,105,110
29,125,2333.5879999999997,-1,55,50
29,126,2091.484,-1,96,80
29,127,1631.6070000000002,1,80,75
29,128,1683.828,1,110,128
29,129,1756.1729999999998,-1,59,50
29,130,3339.763,1,110,119
29,131,1747.04,1,52,50
29,132,2280.312,-1,58,50
29,133,2269.762,-1,119,110
29,134,2733.7870000000007,1,74,80
29,135,3175.2140000000004,-1,86,80
29,136,1692.274,1,66,80
29,137,1154.062,1,50,59
29,138,1598.132,1,94,110
29,139,2456.125,-1,110,87
29,140,1422.63,1,75,80
29,141,2016.306,1,50,45
29,142,1763.932,1,89,110
29,143,1796.8770000000006,1,80,94
29,144,1514.104,-1,110,98
29,145,1614.4089999999999,-1,94,80
29,146,1630.308,-1,110,94
29,147,1689.162,-1,80,66
29,148,1618.537,-1,50,54
29,149,2423.751,1,98,110
29,150,2028.835,1,50,52
29,151,1647.3310000000001,-1,110,89
29,152,1088.229,1,87,110
29,153,2262.337,-1,110,105
29,154,1112.231,1,80,96
29,155,2452.989,-1,80,86
29,156,1582.194,1,50,55
29,157,1688.523,1,80,74
29,158,1281.465,-1,45,50
29,159,1762.87,1,69,80
29,200,2146.514,1,50,53
29,201,1427.287,-1,50,40
29,202,2003.501,1,80,88
29,203,1823.675,1,115,110
29,204,1672.41,1,103,110
29,205,1573.3020000000001,-1,90,80
29,206,2313.555,-1,80,72
29,207,1861.73,-1,93,80
29,208,1401.1729999999998,1,80,90
29,209,1163.805,-1,88,80
29,210,1564.9289999999999,-1,80,70
29,211,1641.945,1,80,93
29,212,1844.862,1,82,80
29,213,2734.389,-1,50,41
29,214,1743.5629999999999,1,96,110
29,215,1723.655,1,80,85
29,216,2192.0429999999997,-1,60,50
29,217,1701.65,1,41,50
29,218,1354.5529999999999,-1,110,96
29,219,1624.1070000000002,1,72,80
29,220,1996.5079999999998,1,49,50
29,221,1863.7420000000002,1,43,50
29,222,2024.489,-1,51,50
29,223,2003.266,1,112,110
29,224,1060.139,1,40,50
29,225,1146.89,1,50,51
29,226,1286.04,-1,85,80
29,227,1779.4189999999999,1,50,49
29,228,1254.557,-1,50,43
29,229,1897.761,1,80,82
29,230,1935.818,1,50,60
29,231,2163.385,-1,53,50
29,232,1407.781,-1,122,110
29,233,2491.6820000000002,1,67,80
29,234,1636.52,-1,80,67
29,235,1823.604,1,70,80
29,236,2083.126,1,110,122
29,237,2784.636,-1,110,115
29,238,1742.896,-1,110,112
29,239,1344.1779999999999,-1,110,103
30,0,4680.924,1,110,131
30,1,4996.805,1,47,50
30,2,2664.6420000000007,-1,50,44
30,3,6709.106,-1,57,50
30,4,5125.906,1,42,50
30,5,5155.294,1,108,110
30,6,7063.925,1,78,80
30,7,3646.841,-1,110,92
30,8,2330.007,1,50,48
30,9,2651.3059999999996,-1,110,101
30,10,3232.755,-1,46,50
30,11,8080.816,1,80,83
30,12,2981.2929999999997,1,50,56
30,13,4144.639,1,50,47
30,14,11431.608,1,110,124
30,15,2894.35,-1,91,80
30,16,1524.3829999999994,1,64,80
30,17,2271.368,-1,83,80
30,18,2265.397,1,101,110
30,19,3294.158,-1,56,50
30,20,2488.621,-1,50,42
30,21,3996.445,1,110,117
30,22,4653.274,-1,77,80
30,23,2125.698,1,80,91
30,24,1427.7079999999999,1,44,50
30,25,4625.55,1,50,57
30,26,7677.2,-1,50,46
30,27,4418.189,1,110,108
30,28,2149.966,-1,133,110
30,29,4008.059,-1,131,110
30,30,8436.837,-1,126,110
30,31,3645.965,1,110,133
30,32,3643.086,1,110,126
30,33,2815.281,1,48,50
30,34,6715.91,-1,80,77
30,35,1956.108,-1,117,110
30,36,2144.529,-1,80,64
30,37,7202.473000000001,1,80,78
30,38,5203.542,-1,124,110
30,39,5757.0769999999975,1,92,110
30,80,1599.6429999999998,-1,128,110
30,81,2116.739,1,50,58
30,82,3931.0159999999996,1,54,50
30,83,1644.6070000000002,-1,80,69
30,84,1523.874,-1,105,110
30,85,1139.515,1,55,50
30,86,2213.43,-1,96,80
30,87,1556.253,-1,80,75
30,88,1981.274,1,110,128
30,89,1845.04,1,59,50
30,90,2286.256,1,110,119
30,91,1161.042,1,52,50
30,92,2561.6220000000008,-1,58,50
30,93,3953.9390000000003,-1,119,110
30,94,2041.7920000000001,1,74,80
30,95,2881.9440000000004,-1,86,80
30,96,1194.765,1,66,80
30,97,1735.61,1,50,59
30,98,1946.1470000000002,1,94,110
30,99,2152.195,-1,110,87
30,100,1246.367,1,75,80
30,101,3708.225,-1,50,45
30,102,2636.322,1,89,110
30,103,2813.348,1,80,94
30,104,1866.035,1,110,98
30,105,2551.49,-1,94,80
30,106,2176.205,-1,110,94
30,107,2625.664,1,80,66
30,108,1778.5379999999998,1,50,54
30,109,2022.2679999999998,1,98,110
30,110,4227.507000000001,1,50,52
30,111,1816.0410000000002,-1,110,89
30,112,2079.825,1,87,110
30,113,2516.327,1,110,105
30,114,2061.501,1,80,96
30,115,2488.583,1,80,86
30,116,2200.5860000000002,1,50,55
30,117,3023.51,1,80,74
30,118,1094.31,1,45,50
30,119,1324.394,1,69,80
30,160,3843.156,1,50,53
30,161,2618.833,-1,50,40
30,162,1985.126,1,80,88
30,163,1415.111,-1,115,110
30,164,2119.5170000000007,1,103,110
30,165,3178.614,1,90,80
30,166,1363.2979999999998,1,80,72
30,167,1475.193,-1,93,80
30,168,1567.0279999999998,1,80,90
30,169,1515.305,-1,88,80
30,170,1637.805,-1,80,70
30,171,2005.049,1,80,93
30,172,1340.078,1,82,80
30,173,1613.2620000000006,-1,50,41
30,174,1794.529,1,96,110
30,175,2032.9820000000002,1,80,85
30,176,2459.925,1,60,50
30,177,2123.6,1,41,50
30,178,2061.373,-1,110,96
30,179,1303.593,1,72,80
30,180,1128.022,1,49,50
30,181,1167.204,1,43,50
30,182,2388.657,1,51,50
30,183,1491.1970000000001,1,112,110
30,184,1295.26,1,40,50
30,185,1321.192,1,50,51
30,186,2679.099,-1,85,80
30,187,1085.844,1,50,49
30,188,1613.271,1,50,43
30,189,1137.866,1,80,82
30,190,1864.358,1,50,60
30,191,1023.655,1,53,50
30,192,3151.7540000000013,-1,122,110
30,193,1274.345,1,67,80
30,194,1855.381,-1,80,67
30,195,2353.3160000000007,1,70,80
30,196,1601.665,1,110,122
30,197,2335.574,1,110,115
30,198,1638.986,1,110,112
30,199,1278.711,1,110,103
31,40,2046.481,1,110,131
31,41,2236.7110000000002,1,47,50
31,42,3024.71,1,50,44
31,43,3844.9190000000003,-1,57,50
31,44,1426.509,1,42,50
31,45,1620.875,-1,108,110
31,46,1745.47,1,78,80
31,47,1190.6,-1,110,92
31,48,3212.102000000001,1,50,48
31,49,2959.508,-1,110,101
31,50,1523.935,-1,46,50
31,51,1927.057,-1,80,83
31,52,1272.036,1,50,56
31,53,1950.257,1,50,47
31,54,1776.7579999999994,-1,110,124
31,55,2118.587,1,91,80
31,56,2151.9610000000002,1,64,80
31,57,2131.123,1,83,80
31,58,1442.031,-1,101,110
31,59,1087.621,1,56,50
31,60,1829.536,-1,50,42
31,61,4417.099,-1,110,117
31,62,3178.2659999999996,1,77,80
31,63,2173.146,1,80,91
31,64,1870.5929999999998,-1,44,50
31,65,1109.357,1,50,57
31,66,1249.849,1,50,46
31,67,1289.757,-1,110,108
31,68,1585.0829999999999,-1,133,110
31,69,2762.928,-1,131,110
31,70,1259.6480000000001,-1,126,110
31,71,2027.2910000000002,1,110,133
31,72,2076.894,-1,110,126
31,73,1295.768,1,48,50
31,74,1066.374,1,80,77
31,75,1178.0410000000004,1,117,110
31,76,1214.255,1,80,64
31,77,1412.381,-1,80,78
31,78,1585.852,1,124,110
31,79,2359.707000000001,1,92,110
31,120,1700.431,1,128,110
31,121,2545.678,1,50,58
31,122,1723.5179999999998,-1,54,50
31,123,1938.131,-1,80,69
31,124,1608.8729999999994,-1,105,110
31,125,2489.76,1,55,50
31,126,2881.211,1,96,80
31,127,4924.4259999999995,1,80,75
31,128,1630.531,1,110,128
31,129,2828.653,1,59,50
31,130,3040.6609999999996,-1,110,119
31,131,1704.2479999999994,1,52,50
31,132,3277.723,1,58,50
31,133,2535.052,1,119,110
31,134,1534.388,1,74,80
31,135,2725.4590000000007,1,86,80
31,136,1716.4170000000001,1,66,80
31,137,1381.101,1,50,59
31,138,2890.798,1,94,110
31,139,3064.658,1,110,87
31,140,1215.5639999999999,1,75,80
31,141,2814.229000000001,1,50,45
31,142,1324.575,1,89,110
31,143,1363.289,1,80,94
31,144,2571.519,-1,110,98
31,145,3230.725,1,94,80
31,146,1543.955,1,110,94
31,147,1026.346,1,80,66
31,148,1128.411,1,50,54
31,149,1180.675,1,98,110
31,150,1149.003,1,50,52
31,151,1034.981,-1,110,89
31,152,1136.212,1,87,110
31,153,1160.751,1,110,105
31,154,1221.925,1,80,96
31,155,1204.328,1,80,86
31,156,1241.488,1,50,55
31,157,4448.339,1,80,74
31,158,1159.256,1,45,50
31,159,2752.659,1,69,80
31,200,2169.698,-1,50,53
31,201,1977.078,1,50,40
31,202,2680.485,1,80,88
31,203,1689.904,-1,115,110
31,204,2395.99,1,103,110
31,205,1078.112,1,90,80
31,206,1638.964,1,80,72
31,207,2425.11,-1,93,80
31,208,3053.119,1,80,90
31,209,2378.541,1,88,80
31,210,1820.964,1,80,70
31,211,1896.8339999999998,1,80,93
31,212,1562.6529999999998,1,82,80
31,213,2232.199,1,50,41
31,214,1626.247,1,96,110
31,215,1787.486,1,80,85
31,216,2021.066,1,60,50
31,217,1680.161,1,41,50
31,218,1178.393,1,110,96
31,219,1764.579,1,72,80
31,220,1244.851,1,49,50
31,221,1755.465,1,43,50
31,222,2110.9610000000002,1,51,50
31,223,1266.829,1,112,110
31,224,1621.5279999999998,1,40,50
31,225,1313.0439999999999,1,50,51
31,226,1223.26,1,85,80
31,227,1626.2060000000001,1,50,49
31,228,2068.631,1,50,43
31,229,1876.425,1,80,82
31,230,2716.013,1,50,60
31,231,1954.329,1,53,50
31,232,2078.482,1,122,110
31,233,1497.953,1,67,80
31,234,1716.746,1,80,67
31,235,6313.1669999999995,1,70,80
31,236,1684.1570000000006,-1,110,122
31,237,4731.989000000001,1,110,115
31,238,2697.9629999999997,1,110,112
31,239,2765.381,1,110,103
32,40,2169.981,1,110,131
32,41,1525.6529999999998,1,47,50
32,42,3527.272,-1,50,44
32,43,2587.509,-1,57,50
32,44,2460.5589999999997,1,42,50
32,45,3924.869,-1,108,110
32,46,4416.1359999999995,-1,78,80
32,47,3099.247000000001,-1,110,92
32,48,1738.83,1,50,48
32,49,3090.735,1,110,101
32,50,1568.1670000000001,1,46,50
32,51,2744.58,1,80,83
32,52,1720.1529999999998,1,50,56
32,53,3698.014,-1,50,47
32,54,3143.852000000001,1,110,124
32,55,2448.685,-1,91,80
32,56,1909.725,1,64,80
32,57,2104.962,1,83,80
32,58,2030.5870000000002,1,101,110
32,59,3106.985,-1,56,50
32,60,5378.982,-1,50,42
32,61,5366.847,1,110,117
32,62,4671.012,1,77,80
32,63,3127.647,1,80,91
32,64,3024.1090000000013,1,44,50
32,65,1621.382,1,50,57
32,66,3252.8509999999997,-1,50,46
32,67,5723.203,1,110,108
32,68,2111.826,-1,133,110
32,69,3406.429,-1,131,110
32,70,4654.883,-1,126,110
32,71,3102.309,1,110,133
32,72,4252.069,1,110,126
32,73,1644.53,1,48,50
32,74,3659.592,1,80,77
32,75,5479.013000000001,1,117,110
32,76,4699.088,1,80,64
32,77,5455.37,1,80,78
32,78,4432.944,-1,124,110
32,79,4477.63,1,92,110
32,120,2352.167,-1,128,110
32,121,1890.006,1,50,58
32,122,3024.1940000000004,1,54,50
32,123,2162.894,1,80,69
