parcode,trial,rt,choice,item_left,item_right
1,0,4261.735,-1,110,131
1,1,3559.258,1,47,50
1,2,3754.4640000000004,1,50,44
1,3,2431.751,-1,57,50
1,4,2199.342,-1,42,50
1,5,3269.922,-1,108,110
1,6,6606.698,-1,78,80
1,7,3642.1459999999997,1,110,92
1,8,5213.48,1,50,48
1,9,5511.334,1,110,101
1,10,2007.957,-1,46,50
1,11,3124.5209999999997,1,80,83
1,12,1978.076,-1,50,56
1,13,2508.548,1,50,47
1,14,3907.2459999999996,1,110,124
1,15,3482.062,1,91,80
1,16,1823.3770000000002,-1,64,80
1,17,5111.944,-1,83,80
1,18,4920.474,-1,101,110
1,19,1869.935,-1,56,50
1,20,1705.8110000000001,-1,50,42
1,21,3083.54,-1,110,117
1,22,2474.714,-1,77,80
1,23,2272.349,-1,80,91
1,24,3790.48,-1,44,50
1,25,2046.0620000000001,-1,50,57
1,26,3822.2509999999997,1,50,46
1,27,3347.54,-1,110,108
1,28,2252.245,1,133,110
1,29,2083.424,1,131,110
1,30,4155.502,1,126,110
1,31,2550.939,-1,110,133
1,32,5814.5509999999995,-1,110,126
1,33,1428.2879999999998,-1,48,50
1,34,1743.991,-1,80,77
1,35,2329.644,1,117,110
1,36,3381.75,1,80,64
1,37,2209.993,-1,80,78
1,38,3602.313,1,124,110
1,39,2506.099,-1,92,110
1,80,7964.300999999998,1,128,110
1,81,1743.8239999999994,-1,50,58
1,82,2122.334,-1,54,50
1,83,2518.011,1,80,69
1,84,2201.475,-1,105,110
1,85,2131.478,-1,55,50
1,86,2017.4289999999999,-1,96,80
1,87,3241.381,1,80,75
1,88,2528.386,-1,110,128
1,89,1679.8729999999994,1,59,50
1,90,1513.221,-1,110,119
1,91,3359.407,1,52,50
1,92,3815.203,-1,58,50
1,93,4747.633,-1,119,110
1,94,3013.624000000001,-1,74,80
1,95,3695.847,-1,86,80
1,96,1818.684,-1,66,80
1,97,3040.837,-1,50,59
1,98,3156.8070000000002,-1,94,110
1,99,5926.643,1,110,87
1,100,4156.099,1,75,80
1,101,2333.893,1,50,45
1,102,2362.993,-1,89,110
1,103,1705.088,-1,80,94
1,104,1720.385,1,110,98
1,105,1728.2179999999994,-1,94,80
1,106,2498.348,1,110,94
1,107,3240.459000000001,1,80,66
1,108,2765.97,1,50,54
1,109,2998.353,1,98,110
1,110,2079.715,-1,50,52
1,111,1666.1029999999994,1,110,89
1,112,2426.928,-1,87,110
1,113,3263.2990000000004,1,110,105
1,114,1723.836,-1,80,96
1,115,1368.6429999999998,-1,80,86
1,116,1990.443,-1,50,55
1,117,2997.1259999999997,-1,80,74
1,118,1573.53,-1,45,50
1,119,2306.153,-1,69,80
1,160,2773.406,-1,50,53
1,161,2122.486,1,50,40
1,162,1541.2910000000006,-1,80,88
1,163,1792.184,-1,115,110
1,164,1719.1229999999994,-1,103,110
1,165,5485.479,1,90,80
1,166,4941.353,1,80,72
1,167,1580.2060000000001,1,93,80
1,168,3148.962,-1,80,90
1,169,2129.2,1,88,80
1,170,1528.68,-1,80,70
1,171,1442.214,-1,80,93
1,172,1628.017,-1,82,80
1,173,2346.231,1,50,41
1,174,3316.3390000000004,-1,96,110
1,175,3031.183,-1,80,85
1,176,2266.764,-1,60,50
1,177,1321.42,-1,41,50
1,178,2265.431,1,110,96
1,179,4164.13,-1,72,80
1,180,2726.3920000000007,-1,49,50
1,181,2464.949,1,43,50
1,182,1844.3139999999999,1,51,50
1,183,4667.099,1,112,110
1,184,3192.227000000001,-1,40,50
1,185,2169.18,-1,50,51
1,186,2349.446,1,85,80
1,187,3171.303,-1,50,49
1,188,2993.885,-1,50,43
1,189,2046.1970000000001,-1,80,82
1,190,2000.771,-1,50,60
1,191,3949.34,1,53,50
1,192,2302.897,1,122,110
1,193,1967.521,-1,67,80
1,194,5436.005,-1,80,67
1,195,1555.0420000000001,-1,70,80
1,196,1991.723,-1,110,122
1,197,3401.665,-1,110,115
1,198,4202.816,1,110,112
1,199,2110.906,1,110,103
2,40,4393.264,-1,110,131
2,41,9018.968,1,47,50
2,42,2271.286,1,50,44
2,43,13824.456,-1,57,50
2,44,2308.854,-1,42,50
2,45,6735.222,-1,108,110
2,46,4220.918,-1,78,80
2,47,4542.710999999998,1,110,92
2,48,10213.207,1,50,48
2,49,12842.266000000001,-1,110,101
2,50,5697.236,-1,46,50
2,51,9507.452,1,80,83
2,52,2202.626,-1,50,56
2,53,10523.383,-1,50,47
2,54,5659.319,-1,110,124
2,55,11711.122,-1,91,80
2,56,4957.49,-1,64,80
2,57,4295.431,1,83,80
2,58,3120.0029999999997,-1,101,110
2,59,6435.686,1,56,50
2,60,4288.92,1,50,42
2,61,9699.076,-1,110,117
2,62,12993.588,-1,77,80
2,63,6368.911,-1,80,91
2,64,5931.459,-1,44,50
2,65,13766.499,-1,50,57
2,66,3602.7690000000002,1,50,46
2,67,8029.58,1,110,108
2,68,9357.582,1,133,110
2,69,14391.407,1,131,110
2,70,13627.4,1,126,110
2,71,4957.208,-1,110,133
2,72,5640.168000000002,-1,110,126
2,73,8963.665,1,48,50
2,74,12768.284,-1,80,77
2,75,13402.298999999999,1,117,110
2,76,8565.537,-1,80,64
2,77,8977.981,1,80,78
2,78,19471.289,1,124,110
2,79,3362.804,-1,92,110
2,120,10371.722,1,128,110
2,121,6100.871,-1,50,58
2,122,10341.341,1,54,50
2,123,6921.445,1,80,69
2,124,3024.208,-1,105,110
2,125,8126.898,1,55,50
2,126,6204.749,-1,96,80
2,127,4774.057,-1,80,75
2,128,4717.593,-1,110,128
2,129,12861.618999999999,-1,59,50
2,130,8381.153,-1,110,119
2,131,7201.565,1,52,50
2,132,6935.852,1,58,50
2,133,8155.781999999997,1,119,110
2,134,11231.186000000005,-1,74,80
2,135,13460.855,1,86,80
2,136,5129.3679999999995,-1,66,80
2,137,3361.537000000001,-1,50,59
2,138,13908.458999999999,-1,94,110
2,139,6783.104,1,110,87
2,140,9203.481,-1,75,80
2,141,5052.915,1,50,45
2,142,6342.498000000001,-1,89,110
2,143,3910.52,-1,80,94
2,144,4594.054,1,110,98
2,145,15601.451000000001,-1,94,80
2,146,7309.275,1,110,94
2,147,5190.82,1,80,66
2,148,20879.898,-1,50,54
2,149,4408.831,-1,98,110
2,150,13117.59,-1,50,52
2,151,5613.9659999999985,1,110,89
2,152,5082.736,-1,87,110
2,153,8499.643,-1,110,105
2,154,7979.472,-1,80,96
2,155,15395.867,1,80,86
2,156,8201.57,-1,50,55
2,157,6820.168000000002,1,80,74
2,158,8076.828,-1,45,50
2,159,5123.042,-1,69,80
2,200,7575.096,-1,50,53
2,201,4658.442,1,50,40
2,202,7008.028,-1,80,88
2,203,13829.928,-1,115,110
2,204,2747.4959999999996,-1,103,110
2,205,12428.383,1,90,80
2,206,4775.54,-1,80,72
2,207,6153.953,1,93,80
2,208,5461.1669999999995,-1,80,90
2,209,7037.482,1,88,80
2,210,15416.275,1,80,70
2,211,5270.916,-1,80,93
2,212,5931.903,1,82,80
2,213,4572.768,1,50,41
2,214,5824.12,-1,96,110
2,215,8615.398000000001,1,80,85
2,216,8031.564,1,60,50
2,217,2722.327,-1,41,50
2,218,14101.24,1,110,96
2,219,8237.123,-1,72,80
2,220,5628.714,-1,49,50
2,221,7812.105,-1,43,50
2,222,13191.96,-1,51,50
2,223,7394.705,-1,112,110
2,224,13209.633,-1,40,50
2,225,9956.088,-1,50,51
2,226,11160.33,-1,85,80
2,227,10567.69,1,50,49
2,228,3856.248,1,50,43
2,229,9273.443000000001,-1,80,82
2,230,2950.9429999999998,-1,50,60
2,231,13342.428,-1,53,50
2,232,7723.314,1,122,110
2,233,4339.5109999999995,-1,67,80
2,234,5191.56,1,80,67
2,235,4657.154,-1,70,80
2,236,5824.51,-1,110,122
2,237,18900.494,-1,110,115
2,238,4334.927,-1,110,112
2,239,8621.08,-1,110,103
3,40,4612.844,1,110,131
3,41,3098.9640000000004,-1,47,50
3,42,3949.32,-1,50,44
3,43,3992.3140000000003,1,57,50
3,44,3063.877,-1,42,50
3,45,6334.299,1,108,110
3,46,3503.517000000001,-1,78,80
3,47,5757.464,1,110,92
3,48,4202.759,1,50,48
3,49,3362.2509999999997,1,110,101
3,50,4765.607,-1,46,50
3,51,4393.51,-1,80,83
3,52,2648.53,-1,50,56
3,53,3205.018,1,50,47
3,54,2249.129,-1,110,124
3,55,3368.787000000001,1,91,80
3,56,1595.809,-1,64,80
3,57,2598.623,-1,83,80
3,58,3256.513,1,101,110
3,59,2950.8979999999997,1,56,50
3,60,2088.328,-1,50,42
3,61,2892.78,-1,110,117
3,62,3153.39,1,77,80
3,63,3489.703,-1,80,91
3,64,1597.213,-1,44,50
3,65,2715.458,-1,50,57
3,66,3544.6479999999997,1,50,46
3,67,5488.943,1,110,108
3,68,2793.11,1,133,110
3,69,3888.3579999999997,1,131,110
3,70,3968.847,1,126,110
3,71,5034.733,-1,110,133
3,72,2112.499,-1,110,126
3,73,2296.6620000000007,-1,48,50
3,74,3646.655,-1,80,77
3,75,4058.0040000000004,1,117,110
3,76,4104.806,1,80,64
3,77,2157.565,-1,80,78
3,78,5902.977,1,124,110
3,79,3965.283,-1,92,110
3,120,2874.212,1,128,110
3,121,1905.035,-1,50,58
3,122,3598.064000000001,-1,54,50
3,123,4363.497,1,80,69
3,124,3112.865,-1,105,110
3,125,1884.503,-1,55,50
3,126,1983.844,-1,96,80
3,127,3481.8979999999997,1,80,75
3,128,1740.578,-1,110,128
3,129,2775.34,1,59,50
3,130,3192.21,-1,110,119
3,131,2788.262,-1,52,50
3,132,2021.154,-1,58,50
3,133,2046.904,-1,119,110
3,134,2458.908,-1,74,80
3,135,11284.041000000001,-1,86,80
3,136,2205.452,-1,66,80
3,137,2938.959000000001,1,50,59
3,138,2075.831,-1,94,110
3,139,6006.701,1,110,87
3,140,5185.448,-1,75,80
3,141,2171.165,-1,50,45
3,142,2231.5879999999997,-1,89,110
3,143,6749.729,-1,80,94
3,144,1702.985,1,110,98
3,145,4327.1,1,94,80
3,146,2781.3979999999997,1,110,94
3,147,2153.141,-1,80,66
3,148,5509.326,-1,50,54
3,149,3790.565,-1,98,110
3,150,1935.545,-1,50,52
3,151,5071.439,1,110,89
3,152,1970.037,-1,87,110
3,153,1915.1879999999999,-1,110,105
3,154,1806.8629999999998,-1,80,96
3,155,3215.5429999999997,-1,80,86
3,156,3040.316,-1,50,55
3,157,2795.6940000000004,1,80,74
3,158,2434.871,-1,45,50
3,159,2171.063,-1,69,80
3,200,6490.153,-1,50,53
3,201,2569.653,1,50,40
3,202,1734.384,1,80,88
3,203,1816.44,-1,115,110
3,204,3418.283,1,103,110
3,205,3388.941,1,90,80
3,206,3212.035,1,80,72
3,207,4191.488,1,93,80
3,208,2193.673,-1,80,90
3,209,2866.639,1,88,80
3,210,4461.154,1,80,70
3,211,1790.7120000000002,-1,80,93
3,212,3086.176,1,82,80
3,213,2421.5879999999997,1,50,41
3,214,5495.088000000002,-1,96,110
3,215,7992.571,1,80,85
3,216,1895.259,-1,60,50
3,217,1717.5279999999998,-1,41,50
3,218,5673.799,-1,110,96
3,219,1735.755,-1,72,80
3,220,1521.761,-1,49,50
3,221,1839.842,-1,43,50
3,222,2040.4460000000001,-1,51,50
3,223,3775.151,-1,112,110
3,224,4915.3420000000015,1,40,50
3,225,1945.35,-1,50,51
3,226,2987.0490000000004,1,85,80
3,227,2836.683,1,50,49
3,228,3238.171,-1,50,43
3,229,3324.511,-1,80,82
3,230,1673.779,-1,50,60
3,231,4260.273,1,53,50
3,232,3245.341,1,122,110
3,233,2464.32,-1,67,80
3,234,3971.055,1,80,67
3,235,4124.874,-1,70,80
3,236,3063.151,-1,110,122
3,237,2784.7309999999998,-1,110,115
3,238,2274.323,-1,110,112
3,239,3210.26,1,110,103
4,0,14824.896999999999,-1,110,131
4,1,2083.157,1,47,50
4,2,9357.174,-1,50,44
4,3,2825.048,-1,57,50
4,4,1900.5720000000001,-1,42,50
4,5,4876.995,-1,108,110
4,6,1821.4389999999999,-1,78,80
4,7,7493.308000000001,1,110,92
4,8,4593.317,-1,50,48
4,9,2388.264,-1,110,101
4,10,4057.3509999999997,-1,46,50
4,11,3000.593,-1,80,83
4,12,3201.176,-1,50,56
4,13,8467.339,-1,50,47
4,14,15422.37,-1,110,124
4,15,22416.61,-1,91,80
4,16,2357.467,-1,64,80
4,17,19852.526,1,83,80
4,18,14929.605,1,101,110
4,19,6802.71,1,56,50
4,20,5623.276,1,50,42
4,21,8088.222,-1,110,117
4,22,8348.753,-1,77,80
4,23,2068.719,-1,80,91
4,24,2864.6059999999998,-1,44,50
4,25,1555.129,-1,50,57
4,26,2010.556,-1,50,46
4,27,25299.521,-1,110,108
4,28,1996.359,-1,133,110
4,29,15235.493,1,131,110
4,30,9458.254,1,126,110
4,31,1876.74,-1,110,133
4,32,6732.5019999999995,-1,110,126
4,33,1564.586,-1,48,50
4,34,10629.362,-1,80,77
4,35,9460.517,1,117,110
4,36,7210.473000000001,1,80,64
4,37,6251.0480000000025,-1,80,78
4,38,6443.4230000000025,-1,124,110
4,39,2842.802,-1,92,110
4,80,5514.536,1,128,110
4,81,1932.558,-1,50,58
4,82,9801.449,-1,54,50
4,83,5940.869000000002,1,80,69
4,84,3591.975,-1,105,110
4,85,2463.779,-1,55,50
4,86,4914.518,-1,96,80
4,87,3861.1540000000014,-1,80,75
4,88,1810.596,-1,110,128
4,89,6114.863,1,59,50
4,90,2444.855,-1,110,119
4,91,3256.276,-1,52,50
4,92,15007.925,-1,58,50
4,93,14697.957,1,119,110
4,94,1860.5839999999998,-1,74,80
4,95,5034.29,-1,86,80
4,96,7942.371,-1,66,80
4,97,1541.675,-1,50,59
4,98,1639.8129999999999,-1,94,110
4,99,3309.907,1,110,87
4,100,1652.721,-1,75,80
4,101,2686.6540000000005,-1,50,45
4,102,1650.025,-1,89,110
4,103,2717.362,-1,80,94
4,104,1869.81,-1,110,98
4,105,8438.741,1,94,80
4,106,1844.599,-1,110,94
4,107,3257.386,-1,80,66
4,108,1544.7620000000006,-1,50,54
4,109,1977.2320000000002,-1,98,110
4,110,5245.960999999998,-1,50,52
4,111,10697.016000000001,1,110,89
4,112,5721.714,-1,87,110
4,113,7035.153,-1,110,105
4,114,1696.6979999999999,-1,80,96
4,115,5437.186,-1,80,86
4,116,1864.389,-1,50,55
4,117,6701.093000000003,-1,80,74
4,118,1591.685,-1,45,50
4,119,3241.1059999999998,-1,69,80
4,160,7326.800999999998,-1,50,53
4,161,10370.944,-1,50,40
4,162,6994.066,-1,80,88
4,163,20801.538,-1,115,110
4,164,3869.4509999999996,-1,103,110
4,165,10888.107,-1,90,80
4,166,15326.428,1,80,72
4,167,3698.599,1,93,80
4,168,1644.7160000000001,-1,80,90
4,169,5217.47,1,88,80
4,170,7844.831999999998,1,80,70
4,171,1715.8470000000002,-1,80,93
4,172,2732.0370000000007,-1,82,80
4,173,19264.999,-1,50,41
4,174,2416.989,-1,96,110
4,175,17362.41,-1,80,85
4,176,8393.032,1,60,50
4,177,4098.332,-1,41,50
4,178,10515.086000000001,-1,110,96
4,179,31663.561,-1,72,80
4,180,13825.958999999999,-1,49,50
4,181,3532.3940000000002,-1,43,50
4,182,6932.071999999999,-1,51,50
4,183,4322.377,-1,112,110
4,184,1712.77,-1,40,50
4,185,8741.851999999999,-1,50,51
4,186,18617.121,-1,85,80
4,187,7029.46,-1,50,49
4,188,17355.536,-1,50,43
4,189,1770.037,-1,80,82
4,190,5798.199000000001,-1,50,60
4,191,2808.845,-1,53,50
4,192,8212.237,1,122,110
4,193,2293.854,-1,67,80
4,194,8415.61,1,80,67
4,195,2697.0170000000007,-1,70,80
4,196,2157.263,-1,110,122
4,197,2450.887,-1,110,115
4,198,3564.241,-1,110,112
4,199,2070.507,-1,110,103
5,0,7222.438,-1,110,131
5,1,4765.239000000001,-1,47,50
5,2,3295.6459999999997,1,50,44
5,3,2944.05,1,57,50
5,4,4044.965,-1,42,50
5,5,5083.667,1,108,110
5,6,2478.845,-1,78,80
5,7,6831.774,-1,110,92
5,8,7215.97,-1,50,48
5,9,7304.2880000000005,-1,110,101
5,10,7185.6,1,46,50
5,11,9791.269,1,80,83
5,12,5181.088,-1,50,56
5,13,6220.18,1,50,47
5,14,4647.5920000000015,-1,110,124
5,15,8988.713,-1,91,80
5,16,3464.902,-1,64,80
5,17,10276.159,-1,83,80
5,18,5499.503000000002,-1,101,110
5,19,6396.53,1,56,50
5,20,3607.382,-1,50,42
5,21,4718.766,-1,110,117
5,22,6240.307,-1,77,80
5,23,3710.405,-1,80,91
5,24,4812.778,-1,44,50
5,25,3689.5490000000004,-1,50,57
5,26,7967.58,-1,50,46
5,27,6837.9659999999985,1,110,108
5,28,3779.256,1,133,110
5,29,3215.512,1,131,110
5,30,3665.191,1,126,110
5,31,6854.611999999999,-1,110,133
5,32,4058.527,-1,110,126
5,33,9497.24,-1,48,50
5,34,5471.9169999999995,-1,80,77
5,35,2581.39,1,117,110
5,36,2750.297,1,80,64
5,37,6351.305,-1,80,78
5,38,1710.4089999999999,1,124,110
5,39,5981.896,-1,92,110
5,80,4242.3009999999995,1,128,110
5,81,6513.653,-1,50,58
5,82,4276.049,1,54,50
5,83,4416.106,1,80,69
5,84,3549.203,-1,105,110
5,85,5117.803,-1,55,50
5,86,10385.769,-1,96,80
5,87,5970.382,1,80,75
5,88,4631.856,-1,110,128
5,89,3194.466,1,59,50
5,90,3151.8309999999997,-1,110,119
5,91,5548.8769999999995,-1,52,50
5,92,5032.219,-1,58,50
5,93,11801.06,-1,119,110
5,94,2841.384,-1,74,80
5,95,6339.8669999999975,1,86,80
5,96,3893.3379999999997,-1,66,80
5,97,1974.536,-1,50,59
5,98,1955.1729999999998,-1,94,110
5,99,4986.021,1,110,87
5,100,11520.601999999999,1,75,80
5,101,4560.314,1,50,45
5,102,3483.968,-1,89,110
5,103,1815.661,-1,80,94
5,104,2644.9109999999996,1,110,98
5,105,5958.765,1,94,80
5,106,3971.2870000000003,-1,110,94
5,107,4262.166,-1,80,66
5,108,4680.479,1,50,54
5,109,2555.67,1,98,110
5,110,4514.502,1,50,52
5,111,4200.33,-1,110,89
5,112,3215.42,1,87,110
5,113,5822.605,-1,110,105
5,114,7330.5480000000025,1,80,96
5,115,4100.559,1,80,86
5,116,4450.724,1,50,55
5,117,7381.719,1,80,74
5,118,4154.848,1,45,50
5,119,7643.315,1,69,80
5,160,4333.5,-1,50,53
5,161,7113.265,-1,50,40
5,162,2821.7990000000004,-1,80,88
5,163,6692.084,-1,115,110
5,164,5363.299,1,103,110
5,165,7395.46,1,90,80
5,166,7097.294,-1,80,72
5,167,4372.559,1,93,80
5,168,5583.156999999997,-1,80,90
5,169,4584.432,1,88,80
5,170,5412.8780000000015,-1,80,70
5,171,2244.948,-1,80,93
5,172,5185.66,1,82,80
5,173,2717.711,1,50,41
5,174,7714.071,-1,96,110
5,175,8222.693000000001,-1,80,85
5,176,7420.130999999998,-1,60,50
5,177,10990.016000000001,-1,41,50
5,178,4468.544,1,110,96
5,179,2355.6820000000002,1,72,80
5,180,4612.005,1,49,50
5,181,9865.907,-1,43,50
5,182,3959.6679999999997,1,51,50
5,183,11031.357,1,112,110
5,184,2095.772,-1,40,50
5,185,3203.825,-1,50,51
5,186,4205.344,1,85,80
5,187,5260.121,-1,50,49
5,188,3668.3259999999996,-1,50,43
5,189,5770.312,1,80,82
5,190,3339.5570000000002,-1,50,60
5,191,13106.934,1,53,50
5,192,2748.2490000000007,1,122,110
5,193,2600.832000000001,1,67,80
5,194,7194.944,-1,80,67
5,195,6219.534000000002,-1,70,80
5,196,6192.639,-1,110,122
5,197,4581.567,1,110,115
5,198,3802.61,-1,110,112
5,199,5948.0819999999985,1,110,103
6,40,2260.55,-1,110,131
6,41,1843.156,-1,47,50
6,42,2730.824,-1,50,44
6,43,2591.599,1,57,50
6,44,2012.6870000000001,-1,42,50
6,45,4287.015,1,108,110
6,46,5723.241,1,78,80
6,47,2819.185,1,110,92
6,48,2436.317,-1,50,48
6,49,2697.941,-1,110,101
6,50,1706.21,-1,46,50
6,51,2821.937,-1,80,83
6,52,2177.331,-1,50,56
6,53,3235.244,-1,50,47
6,54,2865.366,-1,110,124
6,55,2002.3220000000001,-1,91,80
6,56,1829.599,-1,64,80
6,57,1772.886,1,83,80
6,58,2618.333,-1,101,110
6,59,5072.362,1,56,50
6,60,2568.139,1,50,42
6,61,2989.604000000001,-1,110,117
6,62,1675.984,-1,77,80
6,63,3503.513,-1,80,91
6,64,2771.247000000001,-1,44,50
6,65,2388.186,-1,50,57
6,66,3945.5640000000003,1,50,46
6,67,3299.362,1,110,108
6,68,1688.906,1,133,110
6,69,2604.156,1,131,110
6,70,1623.296,1,126,110
6,71,3169.172,-1,110,133
6,72,2024.944,-1,110,126
6,73,2595.24,-1,48,50
6,74,3293.758,1,80,77
6,75,3866.4240000000004,1,117,110
6,76,2417.686,1,80,64
6,77,1925.797,-1,80,78
6,78,2135.408,1,124,110
6,79,2478.857,-1,92,110
6,120,2425.369,1,128,110
6,121,1891.933,-1,50,58
6,122,2044.3020000000001,-1,54,50
6,123,2331.542,1,80,69
6,124,4785.945,1,105,110
6,125,1920.1979999999999,-1,55,50
6,126,1467.219,1,96,80
6,127,3917.63,1,80,75
6,128,1610.102,-1,110,128
6,129,3836.994,1,59,50
6,130,2354.6479999999997,1,110,119
6,131,3061.2990000000004,-1,52,50
6,132,3584.885,1,58,50
6,133,1484.713,-1,119,110
6,134,1891.344,-1,74,80
6,135,1606.882,-1,86,80
6,136,1277.719,-1,66,80
6,137,1658.101,-1,50,59
6,138,2822.017000000001,-1,94,110
6,139,2684.756,1,110,87
6,140,1676.987,-1,75,80
6,141,1805.868,-1,50,45
6,142,1671.5420000000001,-1,89,110
6,143,1571.4270000000001,-1,80,94
6,144,2280.73,1,110,98
6,145,3221.795,1,94,80
6,146,2407.991,1,110,94
6,147,2997.993,1,80,66
6,148,1780.76,-1,50,54
6,149,2413.601,1,98,110
6,150,5177.366,-1,50,52
6,151,2263.326,1,110,89
6,152,2444.7529999999997,-1,87,110
6,153,3962.3990000000003,-1,110,105
6,154,1620.34,-1,80,96
6,155,1457.779,-1,80,86
6,156,2387.0429999999997,-1,50,55
6,157,2361.97,-1,80,74
6,158,2214.81,1,45,50
6,159,1816.2379999999998,-1,69,80
6,200,1731.005,-1,50,53
6,201,2851.458,1,50,40
6,202,2398.445,1,80,88
6,203,1463.681,1,115,110
6,204,2014.43,-1,103,110
6,205,2120.2,1,90,80
6,206,1590.71,-1,80,72
6,207,3189.212,1,93,80
6,208,1438.0439999999999,-1,80,90
6,209,1940.5279999999998,-1,88,80
6,210,4441.81,-1,80,70
6,211,1528.134,-1,80,93
6,212,1431.4460000000001,-1,82,80
6,213,1663.2060000000001,-1,50,41
6,214,1442.37,-1,96,110
6,215,2646.513,-1,80,85
6,216,3014.756,1,60,50
6,217,1225.74,-1,41,50
6,218,2014.943,1,110,96
6,219,1310.065,-1,72,80
6,220,3393.889,1,49,50
6,221,1245.218,-1,43,50
6,222,1462.408,-1,51,50
6,223,1597.046,-1,112,110
6,224,1587.007,-1,40,50
6,225,1592.751,-1,50,51
6,226,4144.806,1,85,80
6,227,1656.356,-1,50,49
6,228,1462.895,-1,50,43
6,229,1550.981,-1,80,82
6,230,1503.257,-1,50,60
6,231,1716.808,-1,53,50
6,232,1170.135,1,122,110
6,233,1385.53,-1,67,80
6,234,1559.527,1,80,67
6,235,1404.849,-1,70,80
6,236,4426.4529999999995,-1,110,122
6,237,1465.382,-1,110,115
6,238,1831.3410000000001,1,110,112
6,239,1191.365,1,110,103
7,40,2540.528,-1,110,131
7,41,1803.085,-1,47,50
7,42,1677.886,-1,50,44
7,43,4365.371,1,57,50
7,44,2389.2870000000007,-1,42,50
7,45,3377.805,-1,108,110
7,46,3784.675,-1,78,80
7,47,16413.455,1,110,92
7,48,5827.5480000000025,-1,50,48
7,49,12620.652,-1,110,101
7,50,9482.994,1,46,50
7,51,3521.427,-1,80,83
7,52,2778.823,-1,50,56
7,53,8080.843000000003,-1,50,47
7,54,12239.264,-1,110,124
7,55,4362.292,-1,91,80
7,56,3057.76,-1,64,80
7,57,3561.9,-1,83,80
7,58,3161.163,-1,101,110
7,59,11508.136,-1,56,50
7,60,10793.268,-1,50,42
7,61,2590.077,-1,110,117
7,62,3393.6459999999997,-1,77,80
7,63,4699.779,-1,80,91
7,64,2150.871,-1,44,50
7,65,3551.735,-1,50,57
7,66,10303.177,-1,50,46
7,67,11565.877,-1,110,108
7,68,19757.21,1,133,110
7,69,4363.442,1,131,110
7,70,8813.949,1,126,110
7,71,4360.6179999999995,-1,110,133
7,72,3519.583,-1,110,126
7,73,5913.826,-1,48,50
7,74,2326.993,-1,80,77
7,75,10471.065,-1,117,110
7,76,3836.047,1,80,64
7,77,3412.04,-1,80,78
7,78,10925.698999999999,1,124,110
7,79,7813.467,-1,92,110
7,120,5965.564,1,128,110
7,121,3822.554,-1,50,58
7,122,4079.5959999999995,1,54,50
7,123,9497.507,1,80,69
7,124,6977.5909999999985,-1,105,110
7,125,2314.0860000000002,-1,55,50
7,126,2606.052,1,96,80
7,127,1906.3729999999998,-1,80,75
7,128,3149.8759999999997,1,110,128
7,129,1323.84,1,59,50
7,130,2000.422,-1,110,119
7,131,5809.339,1,52,50
7,132,11412.856000000002,1,58,50
7,133,4894.394,-1,119,110
7,134,1918.664,-1,74,80
7,135,16962.564,1,86,80
7,136,2624.68,-1,66,80
7,137,1981.838,-1,50,59
7,138,1826.308,-1,94,110
7,139,2720.901,1,110,87
7,140,7352.448,-1,75,80
7,141,7470.791999999998,1,50,45
7,142,1978.485,-1,89,110
7,143,1912.7979999999998,-1,80,94
7,144,12046.813999999995,1,110,98
7,145,3841.3520000000003,-1,94,80
7,146,3467.74,1,110,94
7,147,12776.036,1,80,66
7,148,2286.018,-1,50,54
7,149,5683.7519999999995,-1,98,110
7,150,2816.834000000001,1,50,52
7,151,2519.755,1,110,89
7,152,3017.1059999999998,-1,87,110
7,153,2250.7929999999997,-1,110,105
7,154,3324.625,-1,80,96
7,155,2641.159,-1,80,86
7,156,3210.0679999999998,-1,50,55
7,157,3212.384,-1,80,74
7,158,1866.3,-1,45,50
7,159,3729.593,-1,69,80
7,200,3734.4640000000004,-1,50,53
7,201,7637.415,-1,50,40
7,202,1796.056,-1,80,88
7,203,3441.3070000000002,-1,115,110
7,204,2410.442,-1,103,110
7,205,1535.273,-1,90,80
7,206,8279.899,1,80,72
7,207,3695.598,-1,93,80
7,208,1793.599,-1,80,90
7,209,2049.971,-1,88,80
7,210,6454.18,1,80,70
7,211,1652.4820000000002,-1,80,93
7,212,4602.482,1,82,80
7,213,2436.1679999999997,-1,50,41
7,214,3877.406,-1,96,110
7,215,1958.408,-1,80,85
7,216,7497.271,1,60,50
7,217,1909.779,-1,41,50
7,218,2824.2909999999997,-1,110,96
7,219,1675.047,-1,72,80
7,220,1788.3529999999994,-1,49,50
7,221,1869.825,-1,43,50
7,222,5750.016,-1,51,50
7,223,2405.223,-1,112,110
7,224,1763.336,-1,40,50
7,225,1657.99,-1,50,51
7,226,2819.102000000001,1,85,80
7,227,1617.067,-1,50,49
7,228,8980.375,1,50,43
7,229,1706.915,-1,80,82
7,230,1909.2579999999998,-1,50,60
7,231,3047.705,1,53,50
7,232,1574.9660000000001,-1,122,110
7,233,2869.0040000000013,-1,67,80
7,234,2347.152,1,80,67
7,235,4466.404,-1,70,80
7,236,3036.197,-1,110,122
7,237,5712.335,-1,110,115
7,238,2082.118,-1,110,112
7,239,5657.609,-1,110,103
8,0,4931.005,-1,110,131
8,1,2201.311,-1,47,50
8,2,3136.24,1,50,44
8,3,6726.24,-1,57,50
8,4,1825.579,-1,42,50
8,5,7191.191,1,108,110
8,6,5022.577,-1,78,80
8,7,5351.9619999999995,1,110,92
8,8,6017.398,1,50,48
8,9,4302.345,1,110,101
8,10,3725.712,-1,46,50
8,11,8632.844000000001,1,80,83
8,12,3949.768,-1,50,56
8,13,4871.738,1,50,47
8,14,7526.366,-1,110,124
8,15,4214.918,1,91,80
8,16,2437.981,-1,64,80
8,17,4873.235,-1,83,80
8,18,4016.5570000000002,-1,101,110
8,19,7753.638000000001,1,56,50
8,20,1978.586,-1,50,42
8,21,7250.300999999998,-1,110,117
8,22,6621.583000000001,-1,77,80
8,23,2099.569,-1,80,91
8,24,2055.446,-1,44,50
8,25,2333.077,-1,50,57
8,26,4594.955,-1,50,46
8,27,9217.327,-1,110,108
8,28,3333.158,1,133,110
8,29,12462.491000000002,1,131,110
8,30,2664.239,1,126,110
8,31,10809.408000000001,-1,110,133
8,32,3254.2140000000004,-1,110,126
8,33,1827.608,-1,48,50
8,34,6628.51,-1,80,77
8,35,9029.66,1,117,110
8,36,8494.599,1,80,64
8,37,2609.038,-1,80,78
8,38,3992.917,1,124,110
8,39,6079.516,-1,92,110
8,80,2798.97,-1,128,110
8,81,1729.8039999999999,-1,50,58
8,82,1877.844,-1,54,50
8,83,3232.736,1,80,69
8,84,2248.897,-1,105,110
8,85,2051.915,-1,55,50
8,86,1535.46,1,96,80
8,87,3373.361,1,80,75
8,88,1809.149,-1,110,128
8,89,2734.632,1,59,50
8,90,2794.365,1,110,119
8,91,2546.506,-1,52,50
8,92,2131.962,1,58,50
8,93,3849.1609999999996,-1,119,110
8,94,3392.605,-1,74,80
8,95,3605.7340000000004,-1,86,80
8,96,2144.74,-1,66,80
8,97,2174.261,-1,50,59
8,98,1571.94,-1,94,110
8,99,1742.6370000000006,-1,110,87
8,100,2352.831,1,75,80
8,101,6759.439,1,50,45
8,102,2251.397,-1,89,110
8,103,2173.127,-1,80,94
8,104,1704.156,1,110,98
8,105,1743.33,1,94,80
8,106,1646.4389999999999,1,110,94
8,107,2039.622,1,80,66
8,108,1675.7420000000006,-1,50,54
8,109,1763.484,-1,98,110
8,110,2261.381,-1,50,52
8,111,2515.522,1,110,89
8,112,3370.842,1,87,110
8,113,2468.761,1,110,105
8,114,1909.49,-1,80,96
8,115,4207.208,-1,80,86
8,116,1917.889,-1,50,55
8,117,2471.071,-1,80,74
8,118,2157.019,-1,45,50
8,119,2608.6479999999997,-1,69,80
8,160,5953.334,-1,50,53
8,161,1816.5839999999998,1,50,40
8,162,1597.207,-1,80,88
8,163,2356.35,1,115,110
8,164,1568.646,-1,103,110
8,165,1684.2020000000002,-1,90,80
8,166,1487.0910000000001,-1,80,72
8,167,1492.9720000000002,-1,93,80
8,168,1482.4920000000006,-1,80,90
8,169,1957.235,1,88,80
8,170,1489.4360000000001,1,80,70
8,171,1604.745,-1,80,93
8,172,1681.695,-1,82,80
8,173,1654.8629999999994,1,50,41
8,174,1608.1589999999999,-1,96,110
8,175,1337.638,-1,80,85
8,176,2440.471,1,60,50
8,177,1575.245,-1,41,50
8,178,2015.8229999999999,-1,110,96
8,179,2109.254,-1,72,80
8,180,1834.646,-1,49,50
8,181,1710.672,-1,43,50
8,182,1792.779,-1,51,50
8,183,1716.701,-1,112,110
8,184,1792.024,-1,40,50
8,185,3222.881,-1,50,51
8,186,1853.6789999999999,-1,85,80
8,187,1256.672,-1,50,49
8,188,1255.339,-1,50,43
8,189,1437.8429999999994,-1,80,82
8,190,1549.129,-1,50,60
8,191,1246.492,-1,53,50
8,192,1726.535,1,122,110
8,193,1176.152,-1,67,80
8,194,1661.2679999999998,1,80,67
8,195,1511.4029999999998,-1,70,80
8,196,1570.601,-1,110,122
8,197,1476.527,-1,110,115
8,198,1724.6970000000001,-1,110,112
8,199,1499.0839999999994,-1,110,103
9,40,1934.475,-1,110,131
9,41,1540.8310000000001,-1,47,50
9,42,1175.848,1,50,44
9,43,1182.059,1,57,50
9,44,1396.51,1,42,50
9,45,1930.006,1,108,110
9,46,1308.2939999999999,1,78,80
9,47,1036.766,1,110,92
9,48,1449.9360000000001,-1,50,48
9,49,1058.787,1,110,101
9,50,1717.17,-1,46,50
9,51,1076.954,1,80,83
9,52,1352.932,-1,50,56
9,53,1215.279,1,50,47
9,54,1333.7579999999996,1,110,124
9,55,1361.499,1,91,80
9,56,1991.731,-1,64,80
9,57,1165.253,1,83,80
9,58,1295.232,1,101,110
9,59,1256.585,-1,56,50
9,60,1705.955,1,50,42
9,61,1967.892,-1,110,117
9,62,1166.65,-1,77,80
9,63,1645.865,-1,80,91
9,64,1589.229,-1,44,50
9,65,2286.502,1,50,57
9,66,1508.455,1,50,46
9,67,1655.83,1,110,108
9,68,1218.214,1,133,110
9,69,1249.66,1,131,110
9,70,2072.901,1,126,110
9,71,2098.476,1,110,133
9,72,2318.618,-1,110,126
9,73,1977.6029999999998,-1,48,50
9,74,2210.3979999999997,-1,80,77
9,75,2364.363,1,117,110
9,76,2040.86,1,80,64
9,77,1994.293,1,80,78
9,78,1529.7979999999998,1,124,110
9,79,2425.8360000000002,-1,92,110
9,120,1300.872,-1,128,110
9,121,1054.751,-1,50,58
9,122,1106.469,-1,54,50
9,123,1347.055,1,80,69
9,124,2228.3,1,105,110
9,125,2428.0029999999997,-1,55,50
9,126,1249.481,1,96,80
9,127,1192.81,1,80,75
9,128,1595.585,-1,110,128
9,129,2120.993,-1,59,50
9,130,1511.851,1,110,119
9,131,1884.494,-1,52,50
9,132,2066.95,1,58,50
9,133,2003.251,1,119,110
9,134,1867.2879999999998,1,74,80
9,135,2675.363,1,86,80
9,136,1946.0739999999998,-1,66,80
9,137,1418.2579999999994,1,50,59
9,138,1381.1589999999999,1,94,110
9,139,3053.123,1,110,87
9,140,1265.693,-1,75,80
9,141,1815.269,1,50,45
9,142,1339.931,-1,89,110
9,143,1271.036,-1,80,94
9,144,1844.011,1,110,98
9,145,1857.445,1,94,80
9,146,1799.8120000000001,1,110,94
9,147,1272.3319999999999,1,80,66
9,148,1205.468,1,50,54
9,149,1390.371,1,98,110
9,150,1908.069,1,50,52
9,151,1424.142,-1,110,89
9,152,1372.099,-1,87,110
9,153,2102.561,1,110,105
9,154,4213.558,-1,80,96
9,155,1842.5729999999999,-1,80,86
9,156,1551.521,-1,50,55
9,157,1512.8829999999994,1,80,74
9,158,1877.203,1,45,50
9,159,2026.825,-1,69,80
9,200,2098.8160000000007,-1,50,53
9,201,3274.327,1,50,40
9,202,1462.63,1,80,88
9,203,1108.256,1,115,110
9,204,1124.838,-1,103,110
9,205,1977.7620000000002,1,90,80
9,206,2128.403,1,80,72
9,207,1435.476,1,93,80
9,208,1761.884,-1,80,90
9,209,1466.2220000000002,1,88,80
9,210,1354.152,1,80,70
9,211,1400.34,-1,80,93
9,212,1141.4560000000001,1,82,80
9,213,1343.4389999999999,-1,50,41
9,214,1688.372,-1,96,110
9,215,1452.339,1,80,85
9,216,1166.344,1,60,50
9,217,1931.579,-1,41,50
9,218,4314.135,-1,110,96
9,219,1508.253,-1,72,80
9,220,1795.056,-1,49,50
9,221,1577.658,-1,43,50
9,222,1424.6729999999998,1,51,50
9,223,3135.489,-1,112,110
9,224,1865.355,-1,40,50
9,225,1991.4379999999999,-1,50,51
9,226,2118.678,1,85,80
9,227,1691.866,-1,50,49
9,228,2304.968,1,50,43
9,229,1434.476,1,80,82
9,230,1629.369,-1,50,60
9,231,1102.14,1,53,50
9,232,1199.066,1,122,110
9,233,1727.3239999999994,1,67,80
9,234,1306.924,1,80,67
9,235,1751.975,1,70,80
9,236,1602.2220000000002,1,110,122
9,237,3075.759,1,110,115
9,238,2489.889,1,110,112
9,239,3025.539,1,110,103
10,0,3736.991,-1,110,131
10,1,1653.211,-1,47,50
10,2,8416.123,1,50,44
10,3,2071.994,1,57,50
10,4,1730.19,-1,42,50
10,5,2771.217,1,108,110
10,6,2459.2039999999997,1,78,80
10,7,2078.841,1,110,92
10,8,2362.94,1,50,48
10,9,2434.135,1,110,101
10,10,1757.168,1,46,50
10,11,5145.206,1,80,83
10,12,1340.961,-1,50,56
10,13,3698.658,-1,50,47
10,14,1507.605,-1,110,124
10,15,1235.475,1,91,80
10,16,1457.088,-1,64,80
10,17,2494.292,1,83,80
10,18,2932.98,-1,101,110
10,19,2451.452,1,56,50
10,20,5389.64,1,50,42
10,21,2740.613,-1,110,117
10,22,4739.92,-1,77,80
10,23,2034.764,-1,80,91
10,24,2222.526,-1,44,50
10,25,1637.05,-1,50,57
10,26,3165.539,1,50,46
10,27,2209.962,-1,110,108
10,28,1653.95,1,133,110
10,29,1436.418,1,131,110
10,30,1456.691,1,126,110
10,31,1329.32,-1,110,133
10,32,1237.902,-1,110,126
10,33,4309.021,-1,48,50
10,34,2360.907,1,80,77
10,35,2633.718,1,117,110
10,36,2069.533,1,80,64
10,37,1541.861,-1,80,78
10,38,2597.874,1,124,110
10,39,2669.5009999999997,-1,92,110
10,80,2336.6910000000007,1,128,110
10,81,2502.564,-1,50,58
10,82,3873.099,1,54,50
10,83,2825.664,1,80,69
10,84,3008.745,1,105,110
10,85,1636.23,-1,55,50
10,86,1155.548,1,96,80
10,87,3214.475,-1,80,75
10,88,3052.139,-1,110,128
10,89,2458.186,1,59,50
10,90,5171.365,-1,110,119
10,91,3510.092,-1,52,50
10,92,3211.647,1,58,50
10,93,1058.0439999999999,1,119,110
10,94,5221.032,-1,74,80
10,95,3255.7940000000012,1,86,80
10,96,1430.463,-1,66,80
10,97,1610.642,-1,50,59
10,98,2074.197,1,94,110
10,99,1262.237,1,110,87
10,100,2945.857,-1,75,80
10,101,7351.654,1,50,45
10,102,2482.427,-1,89,110
10,103,1291.3239999999996,-1,80,94
10,104,2356.395,1,110,98
10,105,1330.5870000000002,-1,94,80
10,106,2264.505,1,110,94
10,107,2100.158,1,80,66
10,108,1496.276,-1,50,54
10,109,3162.217,-1,98,110
10,110,1574.379,-1,50,52
10,111,2115.252,1,110,89
10,112,2816.2940000000012,-1,87,110
10,113,2438.37,1,110,105
10,114,1997.5020000000002,-1,80,96
10,115,1385.691,-1,80,86
10,116,5441.257,1,50,55
10,117,3678.1059999999998,1,80,74
10,118,2843.507,-1,45,50
10,119,1709.499,-1,69,80
10,160,3448.474,1,50,53
10,161,2001.1470000000002,1,50,40
10,162,2892.033,-1,80,88
10,163,1321.444,1,115,110
10,164,2314.263,-1,103,110
10,165,6228.2,-1,90,80
10,166,1066.489,1,80,72
10,167,1764.0320000000006,1,93,80
10,168,1403.79,-1,80,90
10,169,1236.143,-1,88,80
10,170,1200.47,1,80,70
10,171,1443.7620000000006,-1,80,93
10,172,1816.375,1,82,80
10,173,2130.63,1,50,41
10,174,6347.843000000003,-1,96,110
10,175,2640.37,-1,80,85
10,176,2216.9610000000002,1,60,50
10,177,1285.889,-1,41,50
10,178,1833.967,1,110,96
10,179,2042.111,1,72,80
10,180,1562.155,-1,49,50
10,181,1721.1770000000001,-1,43,50
10,182,1232.152,-1,51,50
10,183,3342.02,-1,112,110
10,184,1865.652,-1,40,50
10,185,4279.312,-1,50,51
10,186,2332.379,1,85,80
10,187,2874.9829999999997,-1,50,49
10,188,2588.425,1,50,43
10,189,1532.4,1,80,82
10,190,1241.75,-1,50,60
10,191,4626.554,-1,53,50
10,192,1099.336,1,122,110
10,193,1693.148,-1,67,80
10,194,1188.2,1,80,67
10,195,2188.882,-1,70,80
10,196,1153.027,-1,110,122
10,197,3372.397,-1,110,115
10,198,2141.581,1,110,112
10,199,1306.07,1,110,103
11,40,7205.983,-1,110,131
11,41,19998.593,-1,47,50
11,42,7137.775,1,50,44
11,43,25257.305,-1,57,50
11,44,3362.208,-1,42,50
11,45,7017.678000000001,-1,108,110
11,46,6164.984,1,78,80
11,47,5119.36,1,110,92
11,48,2237.529,-1,50,48
11,49,6762.066999999999,-1,110,101
11,50,2311.99,-1,46,50
11,51,5385.946,-1,80,83
11,52,5013.436,-1,50,56
11,53,10141.241,1,50,47
11,54,1752.273,-1,110,124
11,55,2370.396,1,91,80
11,56,2708.692,-1,64,80
11,57,10099.824,1,83,80
11,58,4645.418,-1,101,110
11,59,12998.986,1,56,50
11,60,5211.9540000000015,-1,50,42
11,61,3743.349,-1,110,117
11,62,3109.717,-1,77,80
11,63,3173.591,-1,80,91
11,64,1860.656,-1,44,50
11,65,2084.243,-1,50,57
11,66,3787.5009999999997,1,50,46
11,67,6420.634,-1,110,108
11,68,4208.008,1,133,110
11,69,2605.177,1,131,110
11,70,2968.402,1,126,110
11,71,1895.45,-1,110,133
11,72,1802.158,-1,110,126
11,73,1937.9620000000002,-1,48,50
11,74,5061.215,-1,80,77
11,75,3229.7790000000005,1,117,110
11,76,2795.0559999999996,1,80,64
11,77,1881.78,-1,80,78
11,78,3240.8990000000013,1,124,110
11,79,4477.226,-1,92,110
11,120,2687.762,1,128,110
11,121,2689.618,-1,50,58
11,122,1769.454,-1,54,50
11,123,4536.286,-1,80,69
11,124,2743.343,1,105,110
11,125,2843.907,1,55,50
11,126,7210.607,1,96,80
11,127,8377.961,1,80,75
11,128,3886.863,-1,110,128
11,129,1763.849,-1,59,50
11,130,7303.895,1,110,119
11,131,3534.0820000000012,1,52,50
11,132,2148.839,1,58,50
11,133,2791.337,1,119,110
11,134,2028.795,-1,74,80
11,135,3088.72,1,86,80
11,136,4853.714,-1,66,80
11,137,1864.535,-1,50,59
11,138,2078.99,-1,94,110
11,139,7112.401999999999,1,110,87
11,140,5146.265,-1,75,80
11,141,3957.137,1,50,45
11,142,5605.6330000000025,-1,89,110
11,143,3858.917,-1,80,94
11,144,3866.4770000000003,1,110,98
11,145,10090.541,-1,94,80
11,146,4324.304,1,110,94
11,147,21413.362,1,80,66
11,148,6232.021,-1,50,54
11,149,1966.864,-1,98,110
11,150,2071.327,-1,50,52
11,151,2515.235,1,110,89
11,152,7100.4140000000025,-1,87,110
11,153,2024.8370000000002,-1,110,105
11,154,13906.223999999998,-1,80,96
11,155,3782.8579999999997,1,80,86
11,156,2844.0359999999996,-1,50,55
11,157,3896.4359999999997,-1,80,74
11,158,9063.275,-1,45,50
11,159,9224.087,-1,69,80
11,200,5934.043000000002,-1,50,53
11,201,5620.092,1,50,40
11,202,4725.86,-1,80,88
11,203,2458.0879999999997,-1,115,110
11,204,4713.656,-1,103,110
11,205,5889.694,-1,90,80
11,206,7370.666,1,80,72
11,207,4335.509,1,93,80
11,208,6086.482,-1,80,90
11,209,7796.757,1,88,80
11,210,2339.991,1,80,70
11,211,17110.889,1,80,93
11,212,3283.1690000000012,1,82,80
11,213,8189.443,1,50,41
11,214,9023.685,-1,96,110
11,215,2890.884,-1,80,85
11,216,2341.4120000000007,1,60,50
11,217,1701.515,-1,41,50
11,218,5335.5340000000015,1,110,96
11,219,3426.2859999999996,1,72,80
11,220,1762.0079999999994,-1,49,50
11,221,1917.575,-1,43,50
11,222,4289.202,-1,51,50
11,223,5466.972,1,112,110
11,224,5389.663000000001,-1,40,50
11,225,5505.255,-1,50,51
11,226,7281.303000000001,1,85,80
11,227,3460.741,-1,50,49
11,228,2174.413,-1,50,43
11,229,5571.986999999999,-1,80,82
11,230,2261.369,-1,50,60
11,231,2294.4429999999998,-1,53,50
11,232,6211.309,1,122,110
11,233,3827.236,-1,67,80
11,234,5168.678,1,80,67
11,235,6455.771,-1,70,80
11,236,5957.186,1,110,122
11,237,3704.989,1,110,115
11,238,4106.09,1,110,112
11,239,2312.514,1,110,103
12,40,4133.502,-1,110,131
12,41,2344.901,-1,47,50
12,42,4172.514,-1,50,44
12,43,2683.6809999999996,1,57,50
12,44,2372.649,-1,42,50
12,45,2718.9709999999995,1,108,110
12,46,2275.609,-1,78,80
12,47,3663.2070000000003,1,110,92
12,48,4535.443,-1,50,48
12,49,3811.3,1,110,101
12,50,1867.991,-1,46,50
12,51,3144.909,-1,80,83
12,52,1893.776,-1,50,56
12,53,1612.25,-1,50,47
12,54,3018.789,-1,110,124
12,55,3229.2209999999995,-1,91,80
12,56,2085.74,-1,64,80
12,57,3047.369,-1,83,80
12,58,2189.348,-1,101,110
12,59,2105.953,-1,56,50
12,60,2914.9240000000004,-1,50,42
12,61,2821.4509999999996,-1,110,117
12,62,1907.5410000000002,-1,77,80
12,63,2266.263,-1,80,91
12,64,1622.7179999999994,-1,44,50
12,65,1739.3220000000001,-1,50,57
12,66,1307.09,-1,50,46
12,67,2422.374,1,110,108
12,68,1741.7620000000006,1,133,110
12,69,2127.1479999999997,1,131,110
12,70,1678.1470000000006,-1,126,110
12,71,1387.816,-1,110,133
12,72,3761.125,-1,110,126
12,73,2172.223,-1,48,50
12,74,1835.106,-1,80,77
12,75,1694.1670000000001,-1,117,110
12,76,1639.164,-1,80,64
12,77,1822.856,-1,80,78
12,78,1955.912,-1,124,110
12,79,1829.862,-1,92,110
12,120,2394.368,1,128,110
12,121,2603.083,-1,50,58
12,122,1765.114,-1,54,50
12,123,2620.021,1,80,69
12,124,2092.026,-1,105,110
12,125,1375.6029999999994,-1,55,50
12,126,1931.0410000000002,-1,96,80
12,127,2155.306,1,80,75
12,128,1245.369,-1,110,128
12,129,1689.2320000000002,1,59,50
12,130,1911.731,-1,110,119
12,131,1341.89,-1,52,50
12,132,1148.135,-1,58,50
12,133,2136.489,1,119,110
12,134,2217.437,-1,74,80
12,135,1448.725,-1,86,80
12,136,1879.483,-1,66,80
12,137,1172.7,-1,50,59
12,138,2866.3320000000012,-1,94,110
12,139,3222.912000000001,-1,110,87
12,140,1398.0120000000006,-1,75,80
12,141,2513.735,-1,50,45
12,142,4561.14,1,89,110
12,143,1761.128,-1,80,94
12,144,2467.72,1,110,98
12,145,2671.93,1,94,80
12,146,1884.568,-1,110,94
12,147,2232.173,1,80,66
12,148,1105.443,-1,50,54
12,149,3727.982,-1,98,110
12,150,1173.489,-1,50,52
12,151,2806.945,1,110,89
12,152,2102.4179999999997,-1,87,110
12,153,2204.2270000000008,-1,110,105
12,154,1929.529,-1,80,96
12,155,2294.689,-1,80,86
12,156,1277.845,-1,50,55
12,157,3445.2909999999997,1,80,74
12,158,2538.5660000000007,-1,45,50
12,159,2016.201,-1,69,80
12,200,1864.1,-1,50,53
12,201,2652.9559999999997,-1,50,40
12,202,2208.343,-1,80,88
12,203,3470.655,-1,115,110
12,204,1891.715,-1,103,110
12,205,1603.93,-1,90,80
12,206,1766.97,-1,80,72
12,207,3594.639,1,93,80
12,208,1325.0910000000001,-1,80,90
12,209,1278.315,-1,88,80
12,210,3239.257,1,80,70
12,211,1261.593,-1,80,93
12,212,1838.701,-1,82,80
12,213,1856.8370000000002,1,50,41
12,214,2209.429,-1,96,110
12,215,1270.56,-1,80,85
12,216,1256.982,-1,60,50
12,217,1452.656,-1,41,50
12,218,2016.06,1,110,96
12,219,1395.569,-1,72,80
12,220,1502.5320000000006,-1,49,50
12,221,1211.473,-1,43,50
12,222,1307.368,-1,51,50
12,223,2329.4,1,112,110
12,224,1350.66,-1,40,50
12,225,1188.06,-1,50,51
12,226,1724.1760000000006,1,85,80
12,227,1287.188,-1,50,49
12,228,1480.7520000000006,-1,50,43
12,229,1532.6,-1,80,82
12,230,1978.654,-1,50,60
12,231,1926.6329999999998,1,53,50
12,232,2075.389,1,122,110
12,233,1205.748,-1,67,80
12,234,1598.612,-1,80,67
12,235,1185.141,-1,70,80
12,236,1761.099,1,110,122
12,237,1941.056,1,110,115
12,238,2288.716,-1,110,112
12,239,1670.329,-1,110,103
13,0,4071.551,-1,110,131
13,1,3803.34,-1,47,50
13,2,5355.137,-1,50,44
13,3,5200.359,1,57,50
13,4,4265.177,-1,42,50
13,5,5453.819,-1,108,110
13,6,5005.561,-1,78,80
13,7,3920.2540000000004,1,110,92
13,8,6348.57,1,50,48
13,9,6490.0109999999995,1,110,101
13,10,4763.616,-1,46,50
13,11,5934.736999999999,1,80,83
13,12,5205.076,-1,50,56
13,13,4810.081,1,50,47
13,14,5431.334,-1,110,124
13,15,6128.27,-1,91,80
13,16,4469.657,-1,64,80
13,17,5740.029,-1,83,80
13,18,5992.316,1,101,110
13,19,5097.172000000001,1,56,50
13,20,4768.77,1,50,42
13,21,6163.882,1,110,117
13,22,5691.348000000001,-1,77,80
13,23,5221.3679999999995,-1,80,91
13,24,4817.055,-1,44,50
13,25,6344.611999999999,-1,50,57
13,26,5554.286,1,50,46
13,27,6319.595,1,110,108
13,28,5996.478,-1,133,110
13,29,4910.072,1,131,110
13,30,6431.187,1,126,110
13,31,6390.944,-1,110,133
13,32,6172.81,-1,110,126
13,33,5447.255,1,48,50
13,34,4500.988,-1,80,77
13,35,5599.001,-1,117,110
13,36,4918.652,1,80,64
13,37,6631.776999999999,1,80,78
13,38,5534.829000000002,1,124,110
13,39,6145.396,-1,92,110
13,80,4088.777,1,128,110
13,81,4742.607,-1,50,58
13,82,6010.044,-1,54,50
13,83,4972.817,1,80,69
13,84,5159.719,-1,105,110
13,85,5641.536,1,55,50
13,86,4705.5109999999995,1,96,80
13,87,6562.621,1,80,75
13,88,5491.312,-1,110,128
13,89,4989.419,1,59,50
13,90,5587.143,-1,110,119
13,91,5624.509,-1,52,50
13,92,6289.553000000001,1,58,50
13,93,4868.574000000001,1,119,110
13,94,5237.417,-1,74,80
13,95,5083.344,1,86,80
13,96,5152.319,-1,66,80
13,97,5295.773,-1,50,59
13,98,5441.379,1,94,110
13,99,6426.097,1,110,87
13,100,5147.489000000001,1,75,80
13,101,6903.816,1,50,45
13,102,5571.482,-1,89,110
13,103,4844.277,-1,80,94
13,104,5286.754,1,110,98
13,105,6952.101,1,94,80
13,106,6356.3809999999985,1,110,94
13,107,5737.0509999999995,1,80,66
13,108,5265.026,-1,50,54
13,109,5402.866999999998,-1,98,110
13,110,4650.749,-1,50,52
13,111,2940.232,1,110,89
13,112,4932.683,-1,87,110
13,113,5092.359,-1,110,105
13,114,4935.015,-1,80,96
13,115,5036.0109999999995,-1,80,86
13,116,4137.873,-1,50,55
13,117,5783.6330000000025,1,80,74
13,118,4097.353,-1,45,50
13,119,5039.556,1,69,80
13,160,4714.41,-1,50,53
13,161,5761.401999999999,1,50,40
13,162,5739.5819999999985,1,80,88
13,163,5124.3690000000015,1,115,110
13,164,4688.827,-1,103,110
13,165,5598.0419999999995,-1,90,80
13,166,4835.5909999999985,1,80,72
13,167,5643.044,1,93,80
13,168,3939.683,-1,80,90
13,169,5921.8809999999985,1,88,80
13,170,6611.578,-1,80,70
13,171,5733.983,-1,80,93
13,172,5016.054,-1,82,80
13,173,6418.795,1,50,41
13,174,5317.248000000001,1,96,110
13,175,6311.401,1,80,85
13,176,3751.3590000000004,1,60,50
13,177,4003.975,-1,41,50
13,178,4861.518,1,110,96
13,179,4678.906,1,72,80
13,180,4940.484,1,49,50
13,181,4362.497,-1,43,50
13,182,5849.717,1,51,50
13,183,4097.076,-1,112,110
13,184,9022.497,-1,40,50
13,185,6600.863,-1,50,51
13,186,5722.523,1,85,80
13,187,4758.612,-1,50,49
13,188,6095.1759999999995,1,50,43
13,189,4348.855,-1,80,82
13,190,4764.225,-1,50,60
13,191,5247.2959999999985,-1,53,50
13,192,4770.371,1,122,110
13,193,4668.312,-1,67,80
13,194,4745.915,1,80,67
13,195,4392.422000000001,1,70,80
13,196,4845.4540000000015,-1,110,122
13,197,5804.678000000001,1,110,115
13,198,4870.245,-1,110,112
13,199,5993.969,-1,110,103
14,40,3324.308,-1,110,131
14,41,4480.32,1,47,50
14,42,2523.038,1,50,44
14,43,2791.3390000000004,1,57,50
14,44,6684.934,-1,42,50
14,45,4055.65,-1,108,110
14,46,3286.518,-1,78,80
14,47,2964.972,1,110,92
14,48,5929.486,-1,50,48
14,49,1761.845,1,110,101
14,50,1419.557,-1,46,50
14,51,1643.9560000000001,-1,80,83
14,52,1249.042,-1,50,56
14,53,1372.969,-1,50,47
14,54,2401.027,-1,110,124
14,55,1245.098,-1,91,80
14,56,1233.281,-1,64,80
14,57,1342.2160000000001,-1,83,80
14,58,1259.7169999999999,-1,101,110
14,59,2073.05,1,56,50
14,60,3773.6459999999997,1,50,42
14,61,1497.685,-1,110,117
14,62,2165.322,1,77,80
14,63,1272.365,-1,80,91
14,64,1367.8410000000001,-1,44,50
14,65,2336.13,-1,50,57
14,66,2073.203,1,50,46
14,67,2271.048,1,110,108
14,68,1945.156,1,133,110
14,69,8341.024,1,131,110
14,70,1665.83,1,126,110
14,71,1219.089,-1,110,133
14,72,1168.573,-1,110,126
14,73,1321.3039999999999,-1,48,50
14,74,1316.62,-1,80,77
14,75,1399.691,-1,117,110
14,76,2336.324,1,80,64
14,77,1289.006,-1,80,78
14,78,2602.567,1,124,110
14,79,1337.46,-1,92,110
14,120,3034.393,1,128,110
14,121,1726.455,-1,50,58
14,122,3010.505,-1,54,50
14,123,3630.022,1,80,69
14,124,10180.83,-1,105,110
14,125,5383.8719999999985,1,55,50
14,126,4386.3420000000015,-1,96,80
14,127,7293.022,1,80,75
14,128,2719.974,-1,110,128
14,129,5170.8290000000015,1,59,50
14,130,8635.108,-1,110,119
14,131,5570.065,1,52,50
14,132,3089.8390000000004,-1,58,50
14,133,2183.526,1,119,110
14,134,2594.473,-1,74,80
14,135,3695.539,1,86,80
14,136,3132.579,-1,66,80
14,137,1289.7910000000004,-1,50,59
14,138,5681.5769999999975,-1,94,110
14,139,3496.864,1,110,87
14,140,1519.027,-1,75,80
14,141,4598.014,1,50,45
14,142,2953.836,-1,89,110
14,143,3660.782,-1,80,94
14,144,6895.45,1,110,98
14,145,2595.649,1,94,80
14,146,2868.7459999999996,1,110,94
14,147,3832.4440000000004,1,80,66
14,148,2633.974,-1,50,54
14,149,5024.522,-1,98,110
14,150,1779.915,-1,50,52
14,151,4224.099,1,110,89
14,152,1386.497,-1,87,110
14,153,4284.96,-1,110,105
14,154,4919.425,-1,80,96
14,155,4094.3459999999995,-1,80,86
14,156,8258.419,-1,50,55
14,157,6018.196999999999,-1,80,74
14,158,4584.38,-1,45,50
14,159,5677.403,-1,69,80
14,200,4022.289,1,50,53
14,201,3577.684,1,50,40
14,202,2419.4179999999997,1,80,88
14,203,2636.488,1,115,110
14,204,1578.246,-1,103,110
14,205,1717.5829999999999,1,90,80
14,206,1695.674,1,80,72
14,207,1706.779,1,93,80
14,208,2530.383,-1,80,90
14,209,1934.2160000000001,1,88,80
14,210,1507.17,-1,80,70
14,211,1112.674,-1,80,93
14,212,1033.302,-1,82,80
14,213,1911.3029999999999,1,50,41
14,214,2970.8059999999996,-1,96,110
14,215,3411.277,-1,80,85
14,216,2324.178,1,60,50
14,217,1555.319,-1,41,50
14,218,1295.527,1,110,96
14,219,1378.195,-1,72,80
14,220,3603.538,1,49,50
14,221,1417.078,-1,43,50
14,222,1493.379,-1,51,50
14,223,1204.389,-1,112,110
14,224,1120.662,-1,40,50
14,225,1066.639,1,50,51
14,226,1047.298,-1,85,80
14,227,1080.82,-1,50,49
14,228,2406.61,-1,50,43
14,229,1064.427,-1,80,82
14,230,1104.734,-1,50,60
14,231,1927.102,-1,53,50
14,232,4370.941,1,122,110
14,233,1375.695,-1,67,80
14,234,1286.488,-1,80,67
14,235,2458.285,-1,70,80
14,236,3166.4190000000012,-1,110,122
14,237,1586.569,-1,110,115
14,238,2434.474,1,110,112
14,239,1479.644,-1,110,103
15,40,3213.0570000000002,-1,110,131
15,41,1911.881,-1,47,50
15,42,3329.31,1,50,44
15,43,3117.9040000000005,-1,57,50
15,44,2299.119,-1,42,50
15,45,2421.203,-1,108,110
15,46,4847.147,1,78,80
15,47,5263.507,1,110,92
15,48,2595.804,-1,50,48
15,49,2951.027,1,110,101
15,50,1781.246,-1,46,50
15,51,2734.038,-1,80,83
15,52,2200.877,-1,50,56
15,53,2352.41,1,50,47
15,54,3729.995,-1,110,124
15,55,5162.3,1,91,80
15,56,1931.223,-1,64,80
15,57,6761.232,1,83,80
15,58,2898.953,-1,101,110
15,59,7102.359,-1,56,50
15,60,3027.0679999999998,1,50,42
15,61,3191.7859999999996,-1,110,117
15,62,2312.661,-1,77,80
15,63,1751.829,-1,80,91
15,64,1885.989,-1,44,50
15,65,1841.842,-1,50,57
15,66,3151.2990000000004,1,50,46
15,67,2884.3459999999995,1,110,108
15,68,2756.4109999999996,1,133,110
15,69,2296.337,1,131,110
15,70,2620.081,-1,126,110
15,71,3754.063,-1,110,133
15,72,2232.07,-1,110,126
15,73,4715.899,-1,48,50
15,74,4339.1,-1,80,77
15,75,4913.117,1,117,110
15,76,3676.6009999999997,1,80,64
15,77,5630.674,-1,80,78
15,78,3010.1809999999996,1,124,110
15,79,2233.9429999999998,-1,92,110
15,120,2718.708,1,128,110
15,121,1756.9189999999999,-1,50,58
15,122,1910.4289999999999,-1,54,50
15,123,1606.328,-1,80,69
15,124,4621.395,1,105,110
15,125,6781.861,1,55,50
15,126,4229.285,-1,96,80
15,127,3837.949,1,80,75
15,128,1884.3729999999998,-1,110,128
15,129,3025.372000000001,1,59,50
15,130,1598.082,-1,110,119
15,131,4371.913,1,52,50
15,132,2226.644,1,58,50
15,133,2362.153,1,119,110
15,134,3672.313,-1,74,80
15,135,3397.7140000000004,-1,86,80
15,136,2572.407,-1,66,80
15,137,1822.967,-1,50,59
15,138,2926.6679999999997,-1,94,110
15,139,3288.8990000000013,1,110,87
15,140,1954.9160000000002,-1,75,80
15,141,3543.855,1,50,45
15,142,2000.4,-1,89,110
15,143,1725.1470000000006,-1,80,94
15,144,2511.125,1,110,98
15,145,2649.5409999999997,1,94,80
15,146,2566.174,1,110,94
15,147,4575.964,1,80,66
15,148,5647.967,-1,50,54
15,149,3817.8,-1,98,110
15,150,1913.3329999999999,-1,50,52
15,151,2582.84,1,110,89
15,152,2610.201,-1,87,110
15,153,1888.47,1,110,105
15,154,1708.715,-1,80,96
15,155,2612.92,-1,80,86
15,156,2526.137,1,50,55
15,157,2436.881,1,80,74
15,158,2371.353,-1,45,50
15,159,1880.4620000000002,-1,69,80
15,200,4807.99,1,50,53
15,201,1529.0439999999999,1,50,40
15,202,1627.6660000000006,-1,80,88
15,203,2454.485,1,115,110
15,204,1884.516,-1,103,110
15,205,3335.151,1,90,80
15,206,3638.4640000000004,-1,80,72
15,207,4355.9,1,93,80
15,208,3821.367,-1,80,90
15,209,1757.382,1,88,80
15,210,2452.173,1,80,70
15,211,2488.712,-1,80,93
15,212,3737.865,-1,82,80
15,213,1937.901,-1,50,41
15,214,1545.585,1,96,110
15,215,1850.509,-1,80,85
15,216,2344.205,1,60,50
15,217,1751.0279999999998,-1,41,50
15,218,5484.384,-1,110,96
15,219,5401.733,-1,72,80
15,220,2323.862,-1,49,50
15,221,1736.275,-1,43,50
15,222,2496.636,-1,51,50
15,223,2643.958,-1,112,110
15,224,1751.451,-1,40,50
15,225,5616.222,1,50,51
15,226,6900.5059999999985,1,85,80
15,227,6086.955,-1,50,49
15,228,5994.553000000001,1,50,43
15,229,3866.99,1,80,82
15,230,2893.133,-1,50,60
15,231,1795.4260000000006,-1,53,50
15,232,5605.866,-1,122,110
15,233,1843.3220000000001,-1,67,80
15,234,2435.599,1,80,67
15,235,2240.474,-1,70,80
15,236,2563.388,-1,110,122
15,237,1991.9460000000001,-1,110,115
15,238,4074.4429999999998,1,110,112
15,239,1927.761,1,110,103
16,0,5036.814,1,110,131
16,1,6666.279,-1,47,50
16,2,2896.882,-1,50,44
16,3,4941.589,1,57,50
16,4,3747.9570000000003,1,42,50
16,5,7078.549,1,108,110
16,6,8817.116,1,78,80
16,7,1844.604,1,110,92
16,8,6962.203,1,50,48
16,9,2189.002,1,110,101
16,10,1864.7620000000002,-1,46,50
16,11,5642.773,1,80,83
16,12,7938.654,-1,50,56
16,13,1773.503,-1,50,47
16,14,8362.72,-1,110,124
16,15,4171.918,1,91,80
16,16,6348.4230000000025,-1,64,80
16,17,4260.96,-1,83,80
16,18,3135.347,-1,101,110
16,19,6903.403,1,56,50
16,20,4110.928,-1,50,42
16,21,4106.266,-1,110,117
16,22,8227.724,1,77,80
16,23,4491.226,-1,80,91
16,24,2868.977000000001,-1,44,50
16,25,3290.348,-1,50,57
16,26,3626.132,-1,50,46
16,27,6855.869000000002,1,110,108
16,28,1653.6470000000006,1,133,110
16,29,2228.77,1,131,110
16,30,5596.932,1,126,110
16,31,3126.533,-1,110,133
16,32,2338.83,-1,110,126
16,33,5193.959,-1,48,50
16,34,1584.104,1,80,77
16,35,1990.986,-1,117,110
16,36,5000.792,-1,80,64
16,37,6590.522,-1,80,78
16,38,4521.86,1,124,110
16,39,4227.98,-1,92,110
16,80,2803.514,1,128,110
16,81,2544.863,-1,50,58
16,82,1861.787,1,54,50
16,83,1488.12,1,80,69
16,84,2691.067,1,105,110
16,85,2097.9139999999998,1,55,50
16,86,1489.775,1,96,80
16,87,3101.53,-1,80,75
16,88,1626.11,-1,110,128
16,89,2510.29,1,59,50
16,90,1714.624,-1,110,119
16,91,3615.13,-1,52,50
16,92,1902.783,1,58,50
16,93,2407.591,1,119,110
16,94,1659.011,-1,74,80
16,95,1623.4779999999994,-1,86,80
16,96,1791.695,-1,66,80
16,97,1734.8570000000002,-1,50,59
16,98,1758.39,-1,94,110
16,99,2344.225,1,110,87
16,100,2101.854,-1,75,80
16,101,3114.9040000000005,1,50,45
16,102,1732.851,-1,89,110
16,103,2078.607,-1,80,94
16,104,1734.6779999999999,-1,110,98
16,105,2516.607,1,94,80
16,106,2332.303,1,110,94
16,107,3024.633,1,80,66
16,108,4090.687,-1,50,54
16,109,3128.631,-1,98,110
16,110,2587.4210000000007,-1,50,52
16,111,2383.534,1,110,89
16,112,3422.2540000000013,-1,87,110
16,113,3160.078,-1,110,105
16,114,1962.005,-1,80,96
16,115,1680.483,-1,80,86
16,116,1656.122,-1,50,55
16,117,2741.0229999999997,-1,80,74
16,118,2959.1079999999997,-1,45,50
16,119,1697.1429999999998,-1,69,80
16,160,3733.765,-1,50,53
16,161,1372.3570000000002,1,50,40
16,162,1660.7910000000006,-1,80,88
16,163,2780.6659999999997,1,115,110
16,164,1638.734,-1,103,110
16,165,2529.656,1,90,80
16,166,3319.275,1,80,72
16,167,1600.094,1,93,80
16,168,2007.16,-1,80,90
16,169,2217.5860000000002,-1,88,80
16,170,2922.13,1,80,70
16,171,2608.895,-1,80,93
16,172,2210.489,1,82,80
16,173,3039.761,1,50,41
16,174,1541.849,-1,96,110
16,175,2464.052,-1,80,85
16,176,2385.439,1,60,50
16,177,1751.336,-1,41,50
16,178,3381.522,-1,110,96
16,179,4947.916,-1,72,80
16,180,3439.893,-1,49,50
16,181,1827.2879999999998,-1,43,50
16,182,4233.239000000001,-1,51,50
16,183,3197.341,-1,112,110
16,184,1839.566,-1,40,50
16,185,1646.644,-1,50,51
16,186,1821.8970000000002,-1,85,80
16,187,3053.78,1,50,49
16,188,2725.795,1,50,43
16,189,1549.39,-1,80,82
16,190,1413.255,-1,50,60
16,191,2962.1290000000013,-1,53,50
16,192,3921.2790000000014,1,122,110
16,193,2808.397,-1,67,80
16,194,2444.9539999999997,-1,80,67
16,195,1661.744,1,70,80
16,196,1944.174,-1,110,122
16,197,4598.125,-1,110,115
16,198,2324.459,-1,110,112
16,199,2029.368,-1,110,103
17,40,2444.521,-1,110,131
17,41,4629.874,1,47,50
17,42,6612.573,-1,50,44
17,43,5829.472,1,57,50
17,44,2945.7709999999997,-1,42,50
17,45,7390.815,1,108,110
17,46,3348.937,-1,78,80
17,47,10930.143,1,110,92
17,48,4471.189,-1,50,48
17,49,3547.778,1,110,101
17,50,2703.865,-1,46,50
17,51,8335.483,-1,80,83
17,52,8974.254,-1,50,56
17,53,7330.768,-1,50,47
17,54,3614.821,-1,110,124
17,55,2288.655,1,91,80
17,56,2827.265,-1,64,80
17,57,5201.602,1,83,80
17,58,4749.154,1,101,110
17,59,7701.936,-1,56,50
17,60,6227.031,1,50,42
17,61,12798.777,1,110,117
17,62,8515.495,-1,77,80
17,63,4721.237,-1,80,91
17,64,13318.478000000001,-1,44,50
17,65,12227.114,1,50,57
17,66,10870.698999999999,1,50,46
17,67,5250.7069999999985,-1,110,108
17,68,7656.267,1,133,110
17,69,5846.14,1,131,110
17,70,4033.8520000000003,1,126,110
17,71,8756.368,-1,110,133
17,72,13434.458,-1,110,126
17,73,8655.99,1,48,50
17,74,8542.576,1,80,77
17,75,6812.149,-1,117,110
17,76,2079.317,1,80,64
17,77,12903.296,-1,80,78
17,78,4904.169,1,124,110
17,79,3006.6090000000013,-1,92,110
17,120,5271.764,1,128,110
17,121,4316.538,-1,50,58
17,122,12920.204,1,54,50
17,123,6095.05,1,80,69
17,124,4053.583,-1,105,110
17,125,3514.554,1,55,50
17,126,12553.764,1,96,80
17,127,8568.648000000001,-1,80,75
17,128,8922.804,-1,110,128
17,129,2577.67,1,59,50
17,130,5706.84,1,110,119
17,131,8982.118,-1,52,50
17,132,16282.19,-1,58,50
17,133,15123.462,1,119,110
17,134,8323.117,1,74,80
17,135,9225.886999999999,-1,86,80
17,136,3566.353,-1,66,80
17,137,2282.687,-1,50,59
17,138,4023.027,-1,94,110
17,139,7287.878000000002,1,110,87
17,140,14257.749,-1,75,80
17,141,5033.45,1,50,45
17,142,2468.377,-1,89,110
17,143,3251.114,-1,80,94
17,144,9190.952,-1,110,98
17,145,3479.847,1,94,80
17,146,7210.041999999998,-1,110,94
17,147,6443.748000000001,1,80,66
17,148,3443.1259999999997,-1,50,54
17,149,3965.528,-1,98,110
17,150,3753.1020000000003,1,50,52
17,151,5763.0769999999975,1,110,89
17,152,1628.609,-1,87,110
17,153,10223.509,-1,110,105
17,154,3848.055,-1,80,96
17,155,7369.800999999998,-1,80,86
17,156,9430.724,-1,50,55
17,157,11885.698,1,80,74
17,158,3495.468,1,45,50
17,159,10982.378999999999,-1,69,80
17,200,6140.254,-1,50,53
17,201,6970.968000000003,1,50,40
17,202,3131.329,-1,80,88
17,203,6617.151999999999,1,115,110
17,204,3995.447,-1,103,110
17,205,13947.518999999998,1,90,80
17,206,13634.49,1,80,72
17,207,4056.0440000000003,1,93,80
17,208,2312.452,-1,80,90
17,209,7872.835,-1,88,80
17,210,11600.636999999999,1,80,70
17,211,3214.68,-1,80,93
17,212,10573.491000000002,-1,82,80
17,213,1503.495,1,50,41
17,214,3768.844,-1,96,110
17,215,11161.013,-1,80,85
17,216,1612.6970000000001,1,60,50
17,217,10174.789,-1,41,50
17,218,3083.7070000000012,1,110,96
17,219,2981.672,-1,72,80
17,220,2556.866,1,49,50
17,221,8286.367,-1,43,50
17,222,14342.408000000001,-1,51,50
17,223,7255.014,1,112,110
17,224,5220.749,-1,40,50
17,225,13476.043,1,50,51
17,226,13700.488000000001,-1,85,80
17,227,3857.125,1,50,49
17,228,1733.65,1,50,43
17,229,5214.45,-1,80,82
17,230,5060.513,-1,50,60
17,231,2134.451,1,53,50
17,232,2692.9770000000008,1,122,110
17,233,7441.111,-1,67,80
17,234,9072.115,1,80,67
17,235,1870.211,-1,70,80
17,236,4735.279,-1,110,122
17,237,3985.485,-1,110,115
17,238,4554.13,-1,110,112
17,239,3471.15,-1,110,103
18,0,4023.9509999999996,-1,110,131
18,1,5703.099,1,47,50
18,2,4273.391,1,50,44
18,3,5631.191,-1,57,50
18,4,4558.732,-1,42,50
18,5,8729.055,-1,108,110
18,6,7565.496,-1,78,80
18,7,5851.781999999997,1,110,92
18,8,5886.2869999999975,-1,50,48
18,9,5691.9209999999985,1,110,101
18,10,8676.572,-1,46,50
18,11,8534.586,-1,80,83
18,12,5737.74,1,50,56
18,13,7827.215999999998,-1,50,47
18,14,6763.579000000002,-1,110,124
18,15,9908.079,1,91,80
18,16,7691.736,-1,64,80
18,17,4923.352,1,83,80
18,18,5201.37,-1,101,110
18,19,5645.46,-1,56,50
18,20,5919.066,1,50,42
18,21,5664.624,-1,110,117
18,22,6393.3669999999975,-1,77,80
18,23,5747.181,-1,80,91
18,24,8679.67,-1,44,50
18,25,8494.314,-1,50,57
18,26,7389.205,1,50,46
18,27,10777.296999999999,1,110,108
18,28,4992.517,1,133,110
18,29,5133.566,1,131,110
18,30,3539.847,1,126,110
18,31,5347.944,-1,110,133
18,32,6035.228,-1,110,126
18,33,8028.052,-1,48,50
18,34,7310.241,-1,80,77
18,35,6028.14,1,117,110
18,36,5521.11,-1,80,64
18,37,5207.763,-1,80,78
18,38,6076.576,1,124,110
18,39,4206.846,-1,92,110
18,80,5208.7959999999985,1,128,110
18,81,4426.965,-1,50,58
18,82,4649.958,-1,54,50
18,83,4222.268,1,80,69
18,84,4089.1409999999996,1,105,110
18,85,5405.467,1,55,50
18,86,2681.7870000000007,1,96,80
18,87,4838.84,1,80,75
18,88,2908.0820000000012,-1,110,128
18,89,4764.191,1,59,50
18,90,6443.599,-1,110,119
18,91,5246.056,1,52,50
18,92,4727.949000000001,1,58,50
18,93,5236.652,1,119,110
18,94,3206.787000000001,-1,74,80
18,95,6376.2019999999975,1,86,80
18,96,4663.721,-1,66,80
18,97,2647.401,-1,50,59
18,98,6164.809,-1,94,110
18,99,5970.937,1,110,87
18,100,3411.939000000001,-1,75,80
18,101,2627.966,1,50,45
18,102,2841.3979999999997,-1,89,110
18,103,3157.6929999999998,-1,80,94
18,104,6867.889,1,110,98
18,105,2251.285,1,94,80
18,106,6441.0369999999975,1,110,94
18,107,3046.216,1,80,66
18,108,6263.325,-1,50,54
18,109,3785.637,-1,98,110
18,110,2733.086,1,50,52
18,111,2549.217,1,110,89
18,112,2723.61,-1,87,110
18,113,7797.760999999998,-1,110,105
18,114,2058.104,-1,80,96
18,115,3299.447,-1,80,86
18,116,7186.69,1,50,55
18,117,4215.198,-1,80,74
18,118,5900.3359999999975,-1,45,50
18,119,2816.864,-1,69,80
18,160,6017.063,1,50,53
18,161,2575.931,1,50,40
18,162,2723.84,-1,80,88
18,163,5661.448,-1,115,110
18,164,5683.16,-1,103,110
18,165,5453.071,-1,90,80
18,166,8881.82,1,80,72
18,167,2949.3779999999997,1,93,80
18,168,4752.435,-1,80,90
18,169,3419.387,1,88,80
18,170,3879.152,1,80,70
18,171,8826.808,-1,80,93
18,172,3863.5040000000004,1,82,80
18,173,5034.392,-1,50,41
18,174,6175.267,-1,96,110
18,175,4978.406,-1,80,85
18,176,4372.513,1,60,50
18,177,4613.582,-1,41,50
18,178,2679.603,1,110,96
18,179,3975.9509999999996,-1,72,80
18,180,4491.585999999998,-1,49,50
18,181,4356.596,-1,43,50
18,182,6134.14,-1,51,50
18,183,4599.457,1,112,110
18,184,3430.558,-1,40,50
18,185,8016.204000000002,-1,50,51
18,186,5871.4919999999975,1,85,80
18,187,4372.459,1,50,49
18,188,3623.74,1,50,43
18,189,6436.606,-1,80,82
18,190,2586.7929999999997,-1,50,60
18,191,3935.492,-1,53,50
18,192,3661.4709999999995,1,122,110
18,193,3447.305,-1,67,80
18,194,6868.153,1,80,67
18,195,3567.491,-1,70,80
18,196,1691.779,1,110,122
18,197,2812.0009999999997,-1,110,115
18,198,3308.412000000001,-1,110,112
18,199,4751.335,1,110,103
19,0,5250.488,-1,110,131
19,1,1981.4679999999998,-1,47,50
19,2,5031.873,-1,50,44
19,3,6773.9,1,57,50
19,4,3211.765,-1,42,50
19,5,2708.039,-1,108,110
19,6,3911.197,-1,78,80
19,7,3129.698,1,110,92
19,8,2607.471,-1,50,48
19,9,3674.2459999999996,1,110,101
19,10,2795.76,-1,46,50
19,11,3918.31,-1,80,83
19,12,2001.567,-1,50,56
19,13,3428.448,-1,50,47
19,14,1862.359,-1,110,124
19,15,3863.6079999999997,-1,91,80
19,16,5607.161,-1,64,80
19,17,7464.361999999999,-1,83,80
19,18,5934.56,-1,101,110
19,19,4244.22,-1,56,50
19,20,3393.821,1,50,42
19,21,4506.252,-1,110,117
19,22,6678.861,-1,77,80
19,23,4279.275,-1,80,91
19,24,2231.603,-1,44,50
19,25,3026.3979999999997,-1,50,57
19,26,4290.022,1,50,46
19,27,6269.315,1,110,108
19,28,3411.278,1,133,110
19,29,4039.778,1,131,110
19,30,4837.984,1,126,110
19,31,2340.152,-1,110,133
19,32,2047.578,-1,110,126
19,33,2577.729,-1,48,50
19,34,3224.245,1,80,77
19,35,2181.192,-1,117,110
19,36,3352.925,1,80,64
19,37,3536.414,-1,80,78
19,38,6068.604,-1,124,110
19,39,3674.74,-1,92,110
19,80,6718.911,1,128,110
19,81,1726.19,-1,50,58
19,82,2436.73,-1,54,50
19,83,1861.533,-1,80,69
19,84,2405.278,-1,105,110
19,85,1832.501,-1,55,50
19,86,2390.5789999999997,-1,96,80
19,87,1867.8029999999999,-1,80,75
19,88,1857.648,-1,110,128
19,89,5911.941999999999,1,59,50
19,90,6027.022,-1,110,119
19,91,3998.225,-1,52,50
19,92,3395.0209999999997,-1,58,50
19,93,5094.321,-1,119,110
19,94,3976.1929999999998,-1,74,80
19,95,2346.636,-1,86,80
19,96,1985.611,-1,66,80
19,97,10616.105,-1,50,59
19,98,3424.41,-1,94,110
19,99,4641.089,1,110,87
19,100,2079.65,-1,75,80
19,101,5748.041,1,50,45
19,102,2637.7709999999997,-1,89,110
19,103,2630.658,-1,80,94
19,104,5044.573,1,110,98
19,105,5757.9659999999985,-1,94,80
19,106,2029.046,1,110,94
19,107,5845.3369999999995,-1,80,66
19,108,11578.54,-1,50,54
19,109,2576.067,-1,98,110
19,110,3327.8179999999998,-1,50,52
19,111,2789.167,1,110,89
19,112,2646.031,-1,87,110
19,113,1783.19,-1,110,105
19,114,1689.115,-1,80,96
19,115,2818.893,1,80,86
19,116,2723.774000000001,-1,50,55
19,117,2757.361,-1,80,74
19,118,1913.764,-1,45,50
19,119,1948.715,-1,69,80
19,160,3952.368,-1,50,53
19,161,1830.854,-1,50,40
19,162,6182.783,-1,80,88
19,163,1856.125,-1,115,110
19,164,2229.554,-1,103,110
19,165,3008.2529999999997,1,90,80
19,166,2037.898,-1,80,72
19,167,3785.298,1,93,80
19,168,2218.548,-1,80,90
19,169,1848.757,-1,88,80
19,170,2857.4179999999997,1,80,70
19,171,1687.5839999999994,-1,80,93
19,172,2839.998,1,82,80
19,173,2783.62,1,50,41
19,174,2484.105,-1,96,110
19,175,5557.585,-1,80,85
19,176,2378.669,-1,60,50
19,177,2282.908,-1,41,50
19,178,1793.275,-1,110,96
19,179,1625.402,-1,72,80
19,180,3139.988,-1,49,50
19,181,2142.799,-1,43,50
19,182,2098.373,-1,51,50
19,183,1648.974,-1,112,110
19,184,1655.8,-1,40,50
19,185,1556.4470000000001,-1,50,51
19,186,1820.525,-1,85,80
19,187,1524.9260000000006,-1,50,49
19,188,1508.1270000000006,-1,50,43
19,189,1634.5220000000006,-1,80,82
19,190,2090.5,-1,50,60
19,191,2216.038,-1,53,50
19,192,1694.099,-1,122,110
19,193,1569.817,-1,67,80
19,194,2873.241,1,80,67
19,195,1660.14,-1,70,80
19,196,5719.129,-1,110,122
19,197,2061.6710000000007,-1,110,115
19,198,2244.51,-1,110,112
19,199,1632.625,-1,110,103
20,40,4015.55,-1,110,131
20,41,7637.121,-1,47,50
20,42,16415.783,1,50,44
20,43,10304.574,-1,57,50
20,44,2612.929,-1,42,50
20,45,15358.073,1,108,110
20,46,2269.5029999999997,-1,78,80
20,47,9017.939,1,110,92
20,48,8244.176,-1,50,48
20,49,3843.263,1,110,101
20,50,1992.862,-1,46,50
20,51,2174.9610000000002,-1,80,83
20,52,1999.148,-1,50,56
20,53,5489.294,1,50,47
20,54,2903.708,-1,110,124
20,55,2567.135,-1,91,80
20,56,1695.776,-1,64,80
20,57,1742.1029999999994,-1,83,80
20,58,4612.399,-1,101,110
20,59,13327.15,-1,56,50
20,60,2056.19,-1,50,42
20,61,2489.7470000000008,-1,110,117
20,62,1697.0339999999999,-1,77,80
20,63,1307.224,-1,80,91
20,64,4163.257000000001,-1,44,50
20,65,1602.711,-1,50,57
20,66,2004.477,-1,50,46
20,67,6172.7159999999985,-1,110,108
20,68,3332.7,1,133,110
20,69,3759.427,1,131,110
20,70,8489.855,1,126,110
20,71,1852.57,-1,110,133
20,72,4752.365,-1,110,126
20,73,2084.81,-1,48,50
20,74,1728.6270000000006,-1,80,77
20,75,3484.634,1,117,110
20,76,2587.1820000000002,-1,80,64
20,77,1938.3829999999998,-1,80,78
20,78,2779.5190000000002,1,124,110
20,79,2253.028,-1,92,110
20,120,3124.094,1,128,110
20,121,1254.202,-1,50,58
20,122,3193.1279999999997,1,54,50
20,123,4459.433,1,80,69
20,124,4051.6740000000004,1,105,110
20,125,6400.453,1,55,50
20,126,3182.051,1,96,80
20,127,4598.638,1,80,75
20,128,3294.045,1,110,128
20,129,6806.852,1,59,50
20,130,3292.094,1,110,119
20,131,6791.02,1,52,50
20,132,3599.3959999999997,1,58,50
20,133,3967.937,1,119,110
20,134,2689.5,-1,74,80
20,135,2853.552,1,86,80
20,136,3136.9040000000005,-1,66,80
20,137,1642.807,-1,50,59
20,138,2324.876,-1,94,110
20,139,3933.011,1,110,87
20,140,1878.3139999999999,-1,75,80
20,141,4850.387,1,50,45
20,142,2801.7129999999997,-1,89,110
20,143,3720.0820000000003,-1,80,94
20,144,4276.25,1,110,98
20,145,3891.52,1,94,80
20,146,4596.197,1,110,94
20,147,3366.531,1,80,66
20,148,2127.998,-1,50,54
20,149,5089.17,-1,98,110
20,150,4300.4529999999995,-1,50,52
20,151,4097.556,1,110,89
20,152,4457.96,-1,87,110
20,153,8144.823,1,110,105
20,154,1909.219,-1,80,96
20,155,4475.399,-1,80,86
20,156,1875.828,-1,50,55
20,157,3845.49,1,80,74
20,158,6433.939,1,45,50
20,159,3046.212,-1,69,80
20,200,3193.177,1,50,53
20,201,4568.54,-1,50,40
20,202,2149.355,-1,80,88
20,203,3421.5879999999997,1,115,110
20,204,1821.59,-1,103,110
20,205,1493.02,-1,90,80
20,206,1677.622,1,80,72
20,207,2038.4660000000001,-1,93,80
20,208,1666.171,-1,80,90
20,209,1792.346,-1,88,80
20,210,1698.057,-1,80,70
20,211,1938.372,-1,80,93
20,212,1712.332,-1,82,80
20,213,1719.9489999999994,1,50,41
20,214,2345.002,-1,96,110
20,215,1547.602,-1,80,85
20,216,5882.052,-1,60,50
20,217,1820.025,-1,41,50
20,218,5016.392,1,110,96
20,219,1697.219,-1,72,80
20,220,1449.739,-1,49,50
20,221,1712.516,-1,43,50
20,222,7505.361,1,51,50
20,223,2245.645,-1,112,110
20,224,1769.582,-1,40,50
20,225,5769.4169999999995,-1,50,51
20,226,4935.254,1,85,80
20,227,3703.1420000000003,-1,50,49
20,228,3141.223,1,50,43
20,229,2066.702,-1,80,82
20,230,1497.401,-1,50,60
20,231,4243.157,1,53,50
20,232,2831.132,1,122,110
20,233,1711.9129999999998,-1,67,80
20,234,1567.025,-1,80,67
20,235,3318.729000000001,1,70,80
20,236,2173.874,-1,110,122
20,237,3151.892000000001,1,110,115
20,238,1719.6670000000001,-1,110,112
20,239,2800.157,1,110,103
21,0,4788.804,-1,110,131
21,1,3062.615,-1,47,50
21,2,2814.627,1,50,44
21,3,3524.6609999999996,1,57,50
21,4,1745.8110000000001,-1,42,50
21,5,5618.6309999999985,1,108,110
21,6,3599.037000000001,-1,78,80
21,7,3127.3320000000012,1,110,92
21,8,6084.625,1,50,48
21,9,4577.884,1,110,101
21,10,1707.37,-1,46,50
21,11,4552.962,1,80,83
21,12,1743.274,-1,50,56
21,13,3854.4829999999997,-1,50,47
21,14,4319.938,-1,110,124
21,15,4980.693,1,91,80
21,16,3518.8959999999997,-1,64,80
21,17,2390.111,-1,83,80
21,18,1910.192,-1,101,110
21,19,4397.571,-1,56,50
21,20,2894.042,1,50,42
21,21,7190.021,-1,110,117
21,22,3078.663,1,77,80
21,23,2594.9179999999997,-1,80,91
21,24,2040.3139999999999,-1,44,50
21,25,1951.661,-1,50,57
21,26,4415.8409999999985,1,50,46
21,27,6751.343000000003,-1,110,108
21,28,4986.175,-1,133,110
21,29,4287.637,1,131,110
21,30,6453.49,1,126,110
21,31,2378.002,-1,110,133
21,32,2991.77,-1,110,126
21,33,8537.773000000001,1,48,50
21,34,2556.424,-1,80,77
21,35,4994.751,1,117,110
21,36,5806.8319999999985,1,80,64
21,37,4867.023,-1,80,78
21,38,4425.7429999999995,1,124,110
21,39,3045.637,-1,92,110
21,80,2259.005,1,128,110
21,81,2876.09,-1,50,58
21,82,3792.1859999999997,1,54,50
21,83,4953.383,1,80,69
21,84,6086.174,-1,105,110
21,85,1853.876,-1,55,50
21,86,6288.181,1,96,80
21,87,5492.658,1,80,75
21,88,5079.273,-1,110,128
21,89,7720.113,1,59,50
21,90,2067.515,-1,110,119
21,91,3373.466,-1,52,50
21,92,4757.763,1,58,50
21,93,2216.41,1,119,110
21,94,8953.306999999999,-1,74,80
21,95,5655.27,-1,86,80
21,96,1800.5970000000002,-1,66,80
21,97,1809.005,-1,50,59
21,98,6087.993,-1,94,110
21,99,2367.676,1,110,87
21,100,4641.306,-1,75,80
21,101,5208.175,1,50,45
21,102,3285.998,-1,89,110
21,103,1911.852,-1,80,94
21,104,4350.2,1,110,98
21,105,4407.332,1,94,80
21,106,7101.501,1,110,94
21,107,3596.618,1,80,66
21,108,3515.558,-1,50,54
21,109,4197.757000000001,-1,98,110
21,110,6221.123000000001,-1,50,52
21,111,5153.19,1,110,89
21,112,2283.474,-1,87,110
21,113,6055.583000000001,1,110,105
21,114,1957.349,-1,80,96
21,115,3033.6,-1,80,86
21,116,3853.18,-1,50,55
21,117,2868.1290000000013,1,80,74
21,118,3188.486,-1,45,50
21,119,1792.1029999999994,-1,69,80
21,160,3194.8790000000013,-1,50,53
21,161,2147.085,1,50,40
21,162,5070.572,-1,80,88
21,163,5417.065,-1,115,110
21,164,3136.4640000000004,-1,103,110
21,165,5386.943,1,90,80
21,166,7266.773,1,80,72
21,167,2320.345,1,93,80
21,168,2738.3259999999996,-1,80,90
21,169,3743.0,1,88,80
21,170,6684.2609999999995,-1,80,70
21,171,5069.082,-1,80,93
21,172,4317.218,-1,82,80
21,173,2187.661,1,50,41
21,174,1780.7060000000001,-1,96,110
21,175,4697.693,-1,80,85
21,176,4615.715,1,60,50
21,177,3213.238,-1,41,50
21,178,7377.465999999998,-1,110,96
21,179,3176.4829999999997,-1,72,80
21,180,3459.488,1,49,50
21,181,2485.027,-1,43,50
21,182,4340.71,-1,51,50
21,183,2234.861,1,112,110
21,184,1765.2620000000006,-1,40,50
21,185,2333.864,-1,50,51
21,186,3397.47,-1,85,80
21,187,5579.569,1,50,49
21,188,2468.565,1,50,43
21,189,3862.368,-1,80,82
21,190,4770.802,-1,50,60
21,191,6413.825,-1,53,50
21,192,3994.448,1,122,110
21,193,1734.3039999999999,-1,67,80
21,194,4647.2429999999995,1,80,67
21,195,2337.373,-1,70,80
21,196,2315.217,1,110,122
21,197,3295.675,-1,110,115
21,198,3930.6090000000004,-1,110,112
21,199,4819.1759999999995,-1,110,103
22,40,2639.1209999999996,-1,110,131
22,41,3490.4179999999997,1,47,50
22,42,3392.99,1,50,44
22,43,2362.167,1,57,50
22,44,7480.396,-1,42,50
22,45,4304.928,-1,108,110
22,46,1333.4129999999998,-1,78,80
22,47,1699.346,1,110,92
22,48,1330.119,-1,50,48
22,49,1991.9379999999999,1,110,101
22,50,2734.698,-1,46,50
22,51,5612.598000000001,-1,80,83
22,52,3874.5690000000004,1,50,56
22,53,5428.564,1,50,47
22,54,2538.8289999999997,-1,110,124
22,55,3955.248,-1,91,80
22,56,2049.666,-1,64,80
22,57,5041.603,1,83,80
22,58,7011.989000000001,1,101,110
22,59,3595.792,-1,56,50
22,60,3932.313,-1,50,42
22,61,2984.2259999999997,-1,110,117
22,62,8796.809000000001,-1,77,80
22,63,3577.7459999999996,-1,80,91
22,64,3110.577,-1,44,50
22,65,3619.1059999999998,-1,50,57
22,66,3170.632,-1,50,46
22,67,8489.945,-1,110,108
22,68,5555.579000000002,-1,133,110
22,69,4811.767,1,131,110
22,70,5486.553000000001,1,126,110
22,71,3947.9179999999997,-1,110,133
22,72,3060.958,-1,110,126
22,73,3290.5879999999997,-1,48,50
22,74,4984.029,-1,80,77
22,75,2396.927,-1,117,110
22,76,3058.8459999999995,-1,80,64
22,77,1775.493,1,80,78
22,78,1901.146,1,124,110
22,79,4069.328,-1,92,110
22,120,2543.718,1,128,110
22,121,1651.329,-1,50,58
22,122,2720.7140000000004,-1,54,50
22,123,2237.718,1,80,69
22,124,5937.8719999999985,-1,105,110
22,125,2074.6639999999998,1,55,50
22,126,1913.4370000000001,1,96,80
22,127,6025.029,1,80,75
22,128,5861.154,-1,110,128
22,129,3053.9240000000004,1,59,50
22,130,5750.981,-1,110,119
22,131,2896.5429999999997,-1,52,50
22,132,5574.571,-1,58,50
22,133,5610.303000000001,1,119,110
22,134,5096.788,1,74,80
22,135,7124.988,1,86,80
22,136,1886.0339999999999,-1,66,80
22,137,2175.385,-1,50,59
22,138,2161.453,-1,94,110
22,139,1779.399,1,110,87
22,140,2200.476,1,75,80
22,141,5176.143,-1,50,45
22,142,6800.015,1,89,110
22,143,3217.962,-1,80,94
22,144,2795.17,1,110,98
22,145,2123.109,1,94,80
22,146,5400.809,1,110,94
22,147,3092.4759999999997,1,80,66
22,148,4144.597,-1,50,54
22,149,3872.583,-1,98,110
22,150,2245.7039999999997,1,50,52
22,151,1405.35,1,110,89
22,152,3152.69,-1,87,110
22,153,2129.347,1,110,105
22,154,1228.1989999999996,-1,80,96
22,155,1741.894,-1,80,86
22,156,1512.257,-1,50,55
22,157,6271.58,-1,80,74
22,158,1090.2169999999999,-1,45,50
22,159,1642.316,-1,69,80
22,200,2969.908,-1,50,53
22,201,1796.985,1,50,40
22,202,1501.604,1,80,88
22,203,2535.906,-1,115,110
22,204,1280.104,-1,103,110
22,205,4045.242,-1,90,80
22,206,1617.3129999999999,1,80,72
22,207,2319.141,1,93,80
22,208,1172.646,-1,80,90
22,209,2566.249,1,88,80
22,210,2048.014,1,80,70
22,211,1116.105,-1,80,93
22,212,8926.948,1,82,80
22,213,2706.309,-1,50,41
22,214,2411.239,1,96,110
22,215,2289.552,1,80,85
22,216,1407.2120000000002,-1,60,50
22,217,1720.9360000000001,-1,41,50
22,218,1866.761,1,110,96
22,219,2287.665,1,72,80
22,220,1332.5710000000001,-1,49,50
22,221,2202.458,-1,43,50
22,222,2878.683,-1,51,50
22,223,4337.983,1,112,110
22,224,2690.5209999999997,-1,40,50
22,225,1693.509,-1,50,51
22,226,2313.065,-1,85,80
22,227,1600.281,1,50,49
22,228,1107.641,1,50,43
22,229,1590.6689999999999,-1,80,82
22,230,2748.301,-1,50,60
22,231,3963.145,-1,53,50
22,232,1594.602,-1,122,110
22,233,5893.361999999999,-1,67,80
22,234,1303.528,-1,80,67
22,235,1108.254,-1,70,80
22,236,1507.767,-1,110,122
22,237,4422.5909999999985,1,110,115
22,238,5432.37,-1,110,112
22,239,2910.324,1,110,103
23,0,5204.121,-1,110,131
23,1,3055.1809999999996,-1,47,50
23,2,1742.2120000000002,-1,50,44
23,3,5583.058000000001,-1,57,50
23,4,1630.8239999999994,-1,42,50
23,5,5647.9609999999975,-1,108,110
23,6,10036.347,-1,78,80
23,7,2986.934,1,110,92
23,8,3674.966,-1,50,48
23,9,9208.107,1,110,101
23,10,1972.588,-1,46,50
23,11,4958.179,-1,80,83
23,12,7160.8359999999975,1,50,56
23,13,5275.58,1,50,47
23,14,3053.825,-1,110,124
23,15,11543.973999999998,-1,91,80
23,16,1875.935,-1,64,80
23,17,6832.351,-1,83,80
23,18,3361.985,-1,101,110
23,19,3958.387,1,56,50
23,20,7594.009,-1,50,42
23,21,9315.865,-1,110,117
23,22,1826.872,-1,77,80
23,23,2063.828,1,80,91
23,24,4442.518,-1,44,50
23,25,6184.954000000002,1,50,57
23,26,5219.459,1,50,46
23,27,4985.085999999998,-1,110,108
23,28,6102.594,1,133,110
23,29,5591.604,1,131,110
23,30,10455.844000000001,-1,126,110
23,31,2717.282,-1,110,133
23,32,4991.945,-1,110,126
23,33,4295.0509999999995,-1,48,50
23,34,7051.3830000000025,-1,80,77
23,35,7789.693,1,117,110
23,36,3845.165,1,80,64
23,37,3622.884,1,80,78
23,38,8778.517,1,124,110
23,39,3919.1440000000002,-1,92,110
23,80,5203.747,-1,128,110
23,81,12041.247,-1,50,58
23,82,4817.539000000002,-1,54,50
23,83,3252.75,1,80,69
23,84,5834.547,1,105,110
23,85,3037.466,-1,55,50
23,86,2475.9629999999997,1,96,80
23,87,6641.422,1,80,75
23,88,3295.507,-1,110,128
23,89,2693.0409999999997,1,59,50
23,90,4536.877,-1,110,119
23,91,4190.215,-1,52,50
23,92,2792.5570000000002,1,58,50
23,93,1678.9779999999994,-1,119,110
23,94,4975.688,1,74,80
23,95,4649.152,1,86,80
23,96,3011.4190000000012,-1,66,80
23,97,2162.661,-1,50,59
23,98,1892.987,-1,94,110
23,99,3277.054,1,110,87
23,100,1947.047,-1,75,80
23,101,4248.472,1,50,45
23,102,7842.359,-1,89,110
23,103,5183.759,-1,80,94
23,104,5946.455,1,110,98
23,105,5577.324000000001,1,94,80
23,106,4187.894,1,110,94
23,107,2364.475,1,80,66
23,108,2721.9970000000008,-1,50,54
23,109,3528.017000000001,-1,98,110
23,110,3819.64,1,50,52
23,111,6035.808000000001,1,110,89
23,112,1583.491,-1,87,110
23,113,4636.445,1,110,105
23,114,4978.054,-1,80,96
23,115,5937.286,1,80,86
23,116,4285.335,1,50,55
23,117,2874.7529999999997,-1,80,74
23,118,2423.803,-1,45,50
23,119,2091.791,-1,69,80
23,160,4417.729,1,50,53
23,161,1847.285,1,50,40
23,162,4153.333,-1,80,88
23,163,5662.976,1,115,110
23,164,3128.357,-1,103,110
23,165,3775.908,1,90,80
23,166,7483.732,1,80,72
23,167,3086.677,-1,93,80
23,168,2724.531,-1,80,90
23,169,14799.597,1,88,80
23,170,4785.198,-1,80,70
23,171,4683.189,-1,80,93
23,172,1716.5,-1,82,80
23,173,3201.775,1,50,41
23,174,6216.3319999999985,-1,96,110
23,175,10104.011999999999,1,80,85
23,176,2600.535,1,60,50
23,177,1775.276,-1,41,50
23,178,2897.6929999999998,1,110,96
23,179,3046.368,-1,72,80
23,180,3664.812,1,49,50
23,181,6023.569,-1,43,50
23,182,2116.203,1,51,50
23,183,6664.439,1,112,110
23,184,1934.764,-1,40,50
23,185,2015.0639999999999,1,50,51
23,186,1914.668,-1,85,80
23,187,3160.426,-1,50,49
23,188,6760.503000000002,1,50,43
23,189,3184.7140000000004,-1,80,82
23,190,3722.8759999999997,-1,50,60
23,191,8232.712,-1,53,50
23,192,4782.786,1,122,110
23,193,8870.76,-1,67,80
23,194,4927.35,1,80,67
23,195,4936.844,-1,70,80
23,196,4823.197,1,110,122
23,197,2973.842,-1,110,115
23,198,5737.8,-1,110,112
23,199,4140.13,1,110,103
24,40,3575.375,-1,110,131
24,41,5646.496,-1,47,50
24,42,3149.933,1,50,44
24,43,5463.9619999999995,1,57,50
24,44,2460.966,-1,42,50
24,45,5548.303000000001,-1,108,110
24,46,4746.8279999999995,-1,78,80
24,47,3859.9590000000003,1,110,92
24,48,2762.6009999999997,1,50,48
24,49,7154.855,1,110,101
24,50,2105.4410000000007,-1,46,50
24,51,3839.659,-1,80,83
24,52,2483.4429999999998,-1,50,56
24,53,6981.949000000001,-1,50,47
24,54,7100.686,-1,110,124
24,55,5496.885,-1,91,80
24,56,3532.508,-1,64,80
24,57,2654.093,-1,83,80
24,58,4357.117,-1,101,110
24,59,3053.903,-1,56,50
24,60,4775.43,1,50,42
24,61,7036.495,-1,110,117
24,62,6367.5769999999975,-1,77,80
24,63,4314.791,-1,80,91
24,64,2763.048,-1,44,50
24,65,4439.563,-1,50,57
24,66,2591.437,-1,50,46
24,67,3184.3320000000012,-1,110,108
24,68,2982.3990000000013,1,133,110
24,69,4431.708,-1,131,110
24,70,2305.433,1,126,110
24,71,5890.691999999999,-1,110,133
24,72,2753.98,-1,110,126
24,73,1711.785,-1,48,50
24,74,5420.205,-1,80,77
24,75,2595.165,-1,117,110
24,76,3789.7009999999996,1,80,64
24,77,5070.969,-1,80,78
24,78,2740.984000000001,-1,124,110
24,79,2481.574,-1,92,110
24,120,2367.847,1,128,110
24,121,4291.221,-1,50,58
24,122,2944.6690000000012,-1,54,50
24,123,5680.878000000002,1,80,69
24,124,7102.719,-1,105,110
24,125,2670.7209999999995,-1,55,50
24,126,5302.469,1,96,80
24,127,2602.201,-1,80,75
24,128,1755.29,-1,110,128
24,129,3723.259,1,59,50
24,130,2463.2039999999997,-1,110,119
24,131,3398.064000000001,-1,52,50
24,132,5685.2580000000025,-1,58,50
24,133,4908.208,-1,119,110
24,134,7472.473000000001,-1,74,80
24,135,10282.178,1,86,80
24,136,3187.171,-1,66,80
24,137,2787.333,-1,50,59
24,138,4138.277,-1,94,110
24,139,2225.688,1,110,87
24,140,5286.922,-1,75,80
24,141,1671.793,-1,50,45
24,142,2401.3720000000008,-1,89,110
24,143,2398.8379999999997,-1,80,94
24,144,6067.071,1,110,98
24,145,3546.99,1,94,80
24,146,5266.732,1,110,94
24,147,6182.813,1,80,66
24,148,7787.6640000000025,-1,50,54
24,149,6293.669,1,98,110
24,150,2747.01,-1,50,52
24,151,3819.115,1,110,89
24,152,2608.959,-1,87,110
24,153,5789.958000000001,-1,110,105
24,154,3137.528,-1,80,96
24,155,11949.455,-1,80,86
24,156,4462.793,-1,50,55
24,157,9508.517,1,80,74
24,158,2712.7090000000007,1,45,50
24,159,1579.4579999999999,-1,69,80
24,200,2888.724,-1,50,53
24,201,4297.435,1,50,40
24,202,2260.145,-1,80,88
24,203,1960.6979999999999,1,115,110
24,204,3239.0190000000002,1,103,110
24,205,2213.529,1,90,80
24,206,2944.0440000000012,-1,80,72
24,207,5211.769,-1,93,80
24,208,3964.665,-1,80,90
24,209,3423.163,1,88,80
24,210,2643.2790000000005,1,80,70
24,211,4970.891,-1,80,93
24,212,3342.673,1,82,80
24,213,1978.514,1,50,41
24,214,6042.265,-1,96,110
24,215,2930.1679999999997,-1,80,85
24,216,6251.257,-1,60,50
24,217,1759.21,-1,41,50
24,218,4677.634,1,110,96
24,219,2788.571,-1,72,80
24,220,2701.609000000001,-1,49,50
24,221,2059.749,-1,43,50
24,222,2985.155,-1,51,50
24,223,3842.488,-1,112,110
24,224,1674.875,-1,40,50
24,225,3977.509,1,50,51
24,226,6565.472,-1,85,80
24,227,2701.208,-1,50,49
24,228,4268.8,-1,50,43
24,229,4315.806,-1,80,82
24,230,3440.885,-1,50,60
24,231,3279.55,-1,53,50
24,232,4856.0920000000015,1,122,110
24,233,2480.8089999999997,-1,67,80
24,234,6157.77,-1,80,67
24,235,2544.731,-1,70,80
24,236,2351.11,-1,110,122
24,237,2895.454,-1,110,115
24,238,3671.883,-1,110,112
24,239,5307.49,1,110,103
25,0,10605.34,-1,110,131
25,1,6873.107,-1,47,50
25,2,9148.280999999999,-1,50,44
25,3,9435.773000000001,1,57,50
25,4,5681.378000000002,-1,42,50
25,5,14484.907,-1,108,110
25,6,20821.753,1,78,80
25,7,5124.241,1,110,92
25,8,4464.752,1,50,48
25,9,12785.335,-1,110,101
25,10,11620.868999999999,-1,46,50
25,11,6066.034000000002,-1,80,83
25,12,14469.857,-1,50,56
25,13,14354.673,-1,50,47
25,14,8853.375,-1,110,124
25,15,8577.71,1,91,80
25,16,22884.767999999996,-1,64,80
25,17,18738.581000000002,1,83,80
25,18,7137.299,-1,101,110
25,19,7638.14,1,56,50
25,20,5032.8859999999995,1,50,42
25,21,5773.3409999999985,-1,110,117
25,22,18916.334,1,77,80
25,23,3767.677,-1,80,91
25,24,8356.347,-1,44,50
25,25,10362.931999999999,-1,50,57
25,26,18878.189,1,50,46
25,27,16446.413,-1,110,108
25,28,6331.503000000002,1,133,110
25,29,4537.6759999999995,1,131,110
25,30,4827.674,1,126,110
25,31,4442.857,-1,110,133
25,32,4583.469,-1,110,126
25,33,6211.153,-1,48,50
25,34,11220.261999999999,1,80,77
25,35,9336.648000000001,1,117,110
25,36,8353.089,1,80,64
25,37,10986.937,1,80,78
25,38,3494.054,1,124,110
25,39,5148.55,-1,92,110
25,80,5272.922,1,128,110
25,81,3494.499000000001,-1,50,58
25,82,1748.989,-1,54,50
25,83,5231.227,1,80,69
25,84,5080.765,1,105,110
25,85,4836.0790000000015,1,55,50
25,86,4108.556,1,96,80
25,87,3867.341,1,80,75
25,88,4352.233,-1,110,128
25,89,6863.626,1,59,50
25,90,1729.7579999999994,-1,110,119
25,91,10487.373,1,52,50
25,92,9844.776,1,58,50
25,93,2258.015,-1,119,110
25,94,7393.847,-1,74,80
25,95,4631.108,-1,86,80
25,96,6976.254,-1,66,80
25,97,3445.728,-1,50,59
25,98,14442.578000000001,-1,94,110
25,99,7163.538000000001,1,110,87
25,100,17352.241,-1,75,80
25,101,12157.872,1,50,45
25,102,6527.306,-1,89,110
25,103,10886.82,-1,80,94
25,104,4584.629,1,110,98
25,105,4392.289000000002,1,94,80
25,106,3026.2209999999995,1,110,94
25,107,2553.1479999999997,1,80,66
25,108,12648.333,-1,50,54
25,109,14784.401000000002,-1,98,110
25,110,9254.688,1,50,52
25,111,6988.265,1,110,89
25,112,4438.115,-1,87,110
25,113,13030.08,-1,110,105
25,114,4169.67,-1,80,96
25,115,14829.521999999999,1,80,86
25,116,4997.609,-1,50,55
25,117,12149.061000000005,1,80,74
25,118,9155.211,1,45,50
25,119,7639.21,-1,69,80
25,160,10451.447,1,50,53
25,161,3062.1259999999997,1,50,40
25,162,2317.785,-1,80,88
25,163,3715.88,1,115,110
25,164,5518.65,1,103,110
25,165,3033.6090000000013,1,90,80
25,166,6281.081,-1,80,72
25,167,5961.882,1,93,80
25,168,3211.2059999999997,-1,80,90
25,169,3237.87,1,88,80
25,170,6432.154,1,80,70
25,171,10040.521999999999,-1,80,93
25,172,2498.547,-1,82,80
25,173,3623.4509999999996,1,50,41
25,174,3671.973,-1,96,110
25,175,11918.43,1,80,85
25,176,3124.5959999999995,1,60,50
25,177,2185.444,-1,41,50
25,178,5332.1,1,110,96
25,179,9531.317,1,72,80
25,180,7351.0369999999975,1,49,50
25,181,11476.7,-1,43,50
25,182,7324.7,1,51,50
25,183,8582.713,1,112,110
25,184,1807.66,-1,40,50
25,185,7903.485,1,50,51
25,186,9877.773000000001,1,85,80
25,187,6297.153,-1,50,49
25,188,8252.668,-1,50,43
25,189,6010.1759999999995,-1,80,82
25,190,3384.727000000001,-1,50,60
25,191,7329.265,-1,53,50
25,192,7596.478,1,122,110
25,193,6557.638000000001,-1,67,80
25,194,9484.053,-1,80,67
25,195,14925.51,-1,70,80
25,196,11435.305,-1,110,122
25,197,8143.982,-1,110,115
25,198,13629.316,1,110,112
25,199,11410.918,-1,110,103
26,40,2493.757,-1,110,131
26,41,2694.086,-1,47,50
26,42,3082.664,1,50,44
26,43,2189.881,-1,57,50
26,44,2006.645,-1,42,50
26,45,2061.51,-1,108,110
26,46,3270.151,1,78,80
26,47,2749.1820000000002,1,110,92
26,48,1961.8310000000001,-1,50,48
26,49,2567.314,1,110,101
26,50,2440.868,-1,46,50
26,51,2501.371,-1,80,83
26,52,2034.693,-1,50,56
26,53,2186.896,-1,50,47
26,54,3497.84,-1,110,124
26,55,4301.24,-1,91,80
26,56,2002.954,-1,64,80
26,57,4178.732,1,83,80
26,58,2498.799,-1,101,110
26,59,4576.566,-1,56,50
26,60,3470.5409999999997,1,50,42
26,61,3723.3109999999997,1,110,117
26,62,3684.998,1,77,80
26,63,4086.3379999999997,1,80,91
26,64,5223.016,1,44,50
26,65,4457.9529999999995,1,50,57
26,66,7896.099,-1,50,46
26,67,5371.976,1,110,108
26,68,4946.858,1,133,110
26,69,3588.377,1,131,110
26,70,3142.813,-1,126,110
26,71,4487.395,-1,110,133
26,72,2063.181,-1,110,126
26,73,2060.215,-1,48,50
26,74,2384.944,-1,80,77
26,75,2822.85,1,117,110
26,76,2110.343,-1,80,64
26,77,2032.5179999999998,-1,80,78
26,78,4916.4209999999985,-1,124,110
26,79,3463.87,-1,92,110
26,120,6310.878000000002,1,128,110
26,121,2225.929,-1,50,58
26,122,5577.786,1,54,50
26,123,3762.645,1,80,69
26,124,6337.387,-1,105,110
26,125,5171.295,-1,55,50
26,126,3259.466,1,96,80
26,127,5783.933000000001,-1,80,75
26,128,2434.332000000001,-1,110,128
26,129,4499.962,1,59,50
26,130,6346.889,-1,110,119
26,131,10257.774,-1,52,50
26,132,3939.51,-1,58,50
26,133,5972.6269999999995,1,119,110
26,134,2583.198,-1,74,80
26,135,5884.523,1,86,80
26,136,2442.05,-1,66,80
26,137,2534.487,-1,50,59
26,138,2364.845,-1,94,110
26,139,4377.315,1,110,87
26,140,5945.525,1,75,80
26,141,3650.664,-1,50,45
26,142,2038.65,-1,89,110
26,143,2173.383,-1,80,94
26,144,5711.783,1,110,98
26,145,6388.109,1,94,80
26,146,4760.737,1,110,94
26,147,4125.1359999999995,1,80,66
26,148,4116.57,-1,50,54
26,149,2502.618,-1,98,110
26,150,1974.829,-1,50,52
26,151,2485.7670000000007,-1,110,89
26,152,2519.234,-1,87,110
26,153,5623.303000000001,-1,110,105
26,154,4310.302,-1,80,96
26,155,10034.304,-1,80,86
26,156,3917.847,-1,50,55
26,157,3621.119,-1,80,74
26,158,5296.541,-1,45,50
26,159,2968.852000000001,-1,69,80
26,200,2557.246,-1,50,53
26,201,2706.55,1,50,40
26,202,3796.593,-1,80,88
26,203,1872.349,-1,115,110
26,204,2463.985,-1,103,110
26,205,3838.883,-1,90,80
26,206,2455.096,-1,80,72
26,207,5683.111,1,93,80
26,208,3791.917,-1,80,90
26,209,3503.122000000001,-1,88,80
26,210,6476.696,1,80,70
26,211,3457.796,-1,80,93
26,212,1964.479,-1,82,80
26,213,2053.255,-1,50,41
26,214,2527.177,-1,96,110
26,215,4151.532,-1,80,85
26,216,2804.157,-1,60,50
26,217,2186.1710000000007,-1,41,50
26,218,4935.597,-1,110,96
26,219,2388.042,-1,72,80
26,220,2323.647,-1,49,50
26,221,2301.232,-1,43,50
26,222,2179.766,-1,51,50
26,223,2751.792,-1,112,110
26,224,1819.369,1,40,50
26,225,2228.339,1,50,51
26,226,3792.063,1,85,80
26,227,1906.59,1,50,49
26,228,2741.0570000000002,1,50,43
26,229,1906.411,1,80,82
26,230,3047.259,1,50,60
26,231,1978.0910000000001,1,53,50
26,232,3814.17,1,122,110
26,233,3913.72,1,67,80
26,234,2412.024,-1,80,67
26,235,2991.058,-1,70,80
26,236,2817.886,-1,110,122
26,237,5008.878,-1,110,115
26,238,4788.343,-1,110,112
26,239,2959.277,1,110,103
27,0,3950.737,-1,110,131
27,1,5835.02,1,47,50
27,2,5352.883000000002,1,50,44
27,3,4507.477,1,57,50
27,4,6834.804,-1,42,50
27,5,6077.44,1,108,110
27,6,5213.457,-1,78,80
27,7,5328.029,-1,110,92
27,8,9261.84,1,50,48
27,9,6691.854,1,110,101
27,10,7757.531,-1,46,50
27,11,4448.349,-1,80,83
27,12,7716.714,-1,50,56
27,13,4408.253,1,50,47
27,14,7122.705,-1,110,124
27,15,5303.804,1,91,80
27,16,7383.269,-1,64,80
27,17,5048.714,1,83,80
27,18,6305.976,-1,101,110
27,19,4163.416,1,56,50
27,20,4185.19,1,50,42
27,21,4748.806,-1,110,117
27,22,3863.5959999999995,1,77,80
27,23,7102.5419999999995,-1,80,91
27,24,4330.574000000001,1,44,50
27,25,8992.131,1,50,57
27,26,3646.563,1,50,46
27,27,5312.972,1,110,108
27,28,7022.679,-1,133,110
27,29,5082.712,-1,131,110
27,30,5260.004,1,126,110
27,31,5862.397,-1,110,133
27,32,4152.259,1,110,126
27,33,3599.014,1,48,50
27,34,8363.168,1,80,77
27,35,3620.6409999999996,1,117,110
27,36,3040.1259999999997,1,80,64
27,37,6458.0509999999995,1,80,78
27,38,4473.641,-1,124,110
27,39,3180.2529999999997,-1,92,110
27,80,4239.498,1,128,110
27,81,4625.924,-1,50,58
27,82,4072.04,1,54,50
27,83,4906.705,1,80,69
27,84,4292.288,-1,105,110
27,85,5769.833000000001,-1,55,50
27,86,4733.5909999999985,-1,96,80
27,87,6157.984,-1,80,75
27,88,4234.539000000002,-1,110,128
27,89,3630.7140000000004,1,59,50
27,90,6557.871,1,110,119
27,91,5309.828,-1,52,50
27,92,4604.851,1,58,50
27,93,5040.161,1,119,110
27,94,5441.323,-1,74,80
27,95,5291.478,1,86,80
27,96,4339.1309999999985,-1,66,80
27,97,3678.9440000000004,-1,50,59
27,98,5376.17,-1,94,110
27,99,2604.992,1,110,87
27,100,5154.389,1,75,80
27,101,5868.849,1,50,45
27,102,5130.935,-1,89,110
27,103,5026.089,-1,80,94
27,104,6148.575,-1,110,98
27,105,5467.923000000002,1,94,80
27,106,4826.5340000000015,1,110,94
27,107,5872.719,1,80,66
27,108,6741.6330000000025,-1,50,54
27,109,7723.0390000000025,-1,98,110
27,110,6462.609,1,50,52
27,111,3577.235,-1,110,89
27,112,8134.953,1,87,110
27,113,8271.287,-1,110,105
27,114,5890.257,-1,80,96
27,115,6681.145,1,80,86
27,116,3931.176,1,50,55
27,117,5814.201,1,80,74
27,118,3750.232,1,45,50
27,119,6426.749,-1,69,80
27,160,5299.463000000002,1,50,53
27,161,7262.565,1,50,40
27,162,2547.739,-1,80,88
27,163,4122.298,1,115,110
27,164,6899.056,-1,103,110
27,165,3600.4640000000004,1,90,80
27,166,4702.821,1,80,72
27,167,3088.199,-1,93,80
27,168,7539.236,-1,80,90
27,169,4671.322,1,88,80
27,170,5220.196,1,80,70
27,171,6322.4659999999985,-1,80,93
27,172,5002.960999999998,1,82,80
27,173,4142.707,1,50,41
27,174,3767.635,-1,96,110
27,175,6446.4259999999995,1,80,85
27,176,2007.432,1,60,50
27,177,6654.523,-1,41,50
27,178,3623.594,1,110,96
27,179,5884.854,-1,72,80
27,180,3695.386,1,49,50
27,181,5105.959,-1,43,50
27,182,3536.975,-1,51,50
27,183,2521.8179999999998,1,112,110
27,184,5945.755,-1,40,50
27,185,8233.828000000001,1,50,51
27,186,3162.2309999999998,1,85,80
27,187,4366.012,1,50,49
27,188,8532.418,1,50,43
27,189,4736.5059999999985,1,80,82
27,190,6030.07,-1,50,60
27,191,3036.054,-1,53,50
27,192,3162.565,-1,122,110
27,193,4667.88,1,67,80
27,194,4011.585,1,80,67
27,195,4987.245,-1,70,80
27,196,4882.907,1,110,122
27,197,5823.348000000001,1,110,115
27,198,5319.6269999999995,-1,110,112
27,199,4829.936,1,110,103
28,40,2516.803,-1,110,131
28,41,4611.667,-1,47,50
28,42,3162.954,-1,50,44
28,43,4274.44,1,57,50
28,44,1320.3429999999996,-1,42,50
28,45,3516.6929999999998,-1,108,110
28,46,4181.559,-1,78,80
28,47,3230.012,1,110,92
28,48,3748.777,1,50,48
28,49,4056.1290000000004,-1,110,101
28,50,1765.118,-1,46,50
28,51,2491.894,1,80,83
28,52,2776.723,-1,50,56
28,53,2389.4139999999998,1,50,47
28,54,3909.992,-1,110,124
28,55,5017.354,1,91,80
28,56,1897.1629999999998,-1,64,80
28,57,4054.092,1,83,80
28,58,2561.493,-1,101,110
28,59,2424.959,-1,56,50
28,60,2090.37,1,50,42
28,61,2656.322,1,110,117
28,62,2934.752,-1,77,80
28,63,2613.508,-1,80,91
28,64,1588.852,-1,44,50
28,65,1666.338,-1,50,57
28,66,1429.1860000000001,-1,50,46
28,67,2283.973,-1,110,108
28,68,5978.5869999999995,1,133,110
28,69,3715.7790000000014,-1,131,110
28,70,3857.005,1,126,110
28,71,2976.104000000001,-1,110,133
28,72,5246.7609999999995,-1,110,126
28,73,2561.83,1,48,50
28,74,3181.643,-1,80,77
28,75,2615.883,1,117,110
28,76,1252.518,1,80,64
28,77,6176.735,1,80,78
28,78,1861.325,1,124,110
28,79,2567.343,-1,92,110
28,120,6297.531999999997,1,128,110
28,121,1401.089,-1,50,58
28,122,2104.552,1,54,50
28,123,2359.1820000000002,1,80,69
28,124,3290.0190000000002,1,105,110
28,125,1893.0929999999998,1,55,50
28,126,2076.873,1,96,80
28,127,1671.487,1,80,75
28,128,1379.1629999999998,-1,110,128
28,129,1890.568,-1,59,50
28,130,1916.058,1,110,119
28,131,1265.762,-1,52,50
28,132,1345.4679999999996,1,58,50
28,133,1792.846,1,119,110
28,134,4371.712,-1,74,80
28,135,1260.809,1,86,80
28,136,2755.008,-1,66,80
28,137,1298.415,-1,50,59
28,138,2360.726,-1,94,110
28,139,3837.262,1,110,87
28,140,1772.3529999999994,-1,75,80
28,141,2033.685,1,50,45
28,142,1944.72,-1,89,110
28,143,2595.402,-1,80,94
28,144,3124.884,1,110,98
28,145,1874.184,1,94,80
28,146,1970.511,1,110,94
28,147,1708.575,1,80,66
28,148,1147.188,-1,50,54
28,149,1963.095,-1,98,110
28,150,1404.836,-1,50,52
28,151,1831.547,1,110,89
28,152,3129.259,-1,87,110
28,153,5533.476,1,110,105
28,154,2495.93,-1,80,96
28,155,1847.6870000000001,-1,80,86
28,156,1486.134,-1,50,55
28,157,2800.127,1,80,74
28,158,1148.0,-1,45,50
28,159,1277.401,-1,69,80
28,200,2797.915,-1,50,53
28,201,1747.4370000000001,1,50,40
28,202,1347.6860000000001,-1,80,88
28,203,1417.795,-1,115,110
28,204,2121.8160000000007,-1,103,110
28,205,2185.408,1,90,80
28,206,5207.333,1,80,72
28,207,2165.593,1,93,80
28,208,2110.669,-1,80,90
28,209,2865.854000000001,1,88,80
28,210,1830.256,1,80,70
28,211,2949.485,-1,80,93
28,212,2504.76,-1,82,80
28,213,1805.355,1,50,41
28,214,2436.0029999999997,-1,96,110
28,215,1165.694,-1,80,85
28,216,1898.451,1,60,50
28,217,2716.545,-1,41,50
28,218,5059.486,-1,110,96
28,219,1643.5810000000001,-1,72,80
28,220,2790.7340000000013,1,49,50
28,221,1351.9560000000001,-1,43,50
28,222,1314.693,-1,51,50
28,223,1949.92,1,112,110
28,224,1411.48,-1,40,50
28,225,1795.223,1,50,51
28,226,1928.204,1,85,80
28,227,1282.97,-1,50,49
28,228,1320.4389999999999,-1,50,43
28,229,1425.7020000000002,-1,80,82
28,230,1091.249,-1,50,60
28,231,1135.555,-1,53,50
28,232,1952.816,1,122,110
28,233,1114.6019999999999,-1,67,80
28,234,1701.3229999999999,1,80,67
28,235,1118.927,-1,70,80
28,236,2236.474,-1,110,122
28,237,2228.576,-1,110,115
28,238,2740.866,1,110,112
28,239,2461.8289999999997,-1,110,103
29,0,2307.362,-1,110,131
29,1,3727.04,-1,47,50
29,2,2097.3979999999997,1,50,44
29,3,2346.408,1,57,50
29,4,1552.626,-1,42,50
29,5,1965.545,1,108,110
29,6,2016.642,-1,78,80
29,7,1999.75,1,110,92
29,8,2637.325,-1,50,48
29,9,2055.1929999999998,1,110,101
29,10,1455.74,-1,46,50
29,11,2133.939,1,80,83
29,12,2207.377,-1,50,56
29,13,1621.04,-1,50,47
29,14,1620.499,-1,110,124
29,15,2113.161,1,91,80
29,16,1347.364,-1,64,80
29,17,1945.0379999999998,1,83,80
29,18,1461.631,-1,101,110
29,19,1986.005,-1,56,50
29,20,2873.722,-1,50,42
29,21,3685.171,1,110,117
29,22,2989.9109999999996,-1,77,80
29,23,1489.596,-1,80,91
29,24,1718.2620000000006,-1,44,50
29,25,1651.589,-1,50,57
29,26,1406.5079999999994,-1,50,46
29,27,1894.46,1,110,108
29,28,1955.987,1,133,110
29,29,2029.414,1,131,110
29,30,1618.1970000000001,-1,126,110
29,31,1427.059,-1,110,133
29,32,1549.8270000000002,-1,110,126
29,33,1447.861,-1,48,50
29,34,2712.0570000000002,1,80,77
29,35,1603.18,1,117,110
29,36,1527.441,1,80,64
29,37,2162.75,1,80,78
29,38,2738.155,-1,124,110
29,39,1592.1570000000006,-1,92,110
29,80,2293.7,1,128,110
29,81,1379.592,-1,50,58
29,82,1907.898,1,54,50
29,83,2088.514,1,80,69
29,84,1478.069,-1,105,110
29,85,2214.4429999999998,1,55,50
29,86,2047.621,1,96,80
29,87,2330.495,1,80,75
29,88,1695.6879999999999,-1,110,128
29,89,2020.932,1,59,50
29,90,1294.907,-1,110,119
29,91,2457.139,1,52,50
29,92,2134.499,1,58,50
29,93,1841.079,1,119,110
29,94,1418.898,-1,74,80
29,95,1977.168,1,86,80
29,96,1711.474,-1,66,80
29,97,1456.35,-1,50,59
29,98,1388.543,-1,94,110
29,99,2021.057,1,110,87
29,100,1696.056,-1,75,80
29,101,2179.365,1,50,45
29,102,1528.295,-1,89,110
29,103,1949.66,-1,80,94
29,104,1855.783,1,110,98
29,105,1886.7160000000001,1,94,80
29,106,1912.885,1,110,94
29,107,1505.0020000000006,-1,80,66
29,108,1393.3239999999994,-1,50,54
29,109,2635.1459999999997,-1,98,110
29,110,2665.32,-1,50,52
29,111,1820.5929999999998,1,110,89
29,112,1431.295,-1,87,110
29,113,1868.039,1,110,105
29,114,1472.836,-1,80,96
29,115,1436.2160000000001,-1,80,86
29,116,1424.26,-1,50,55
29,117,1686.889,-1,80,74
29,118,1229.458,-1,45,50
29,119,1823.161,-1,69,80
29,160,2159.923,-1,50,53
29,161,1656.1729999999998,1,50,40
29,162,1580.1229999999994,-1,80,88
29,163,1873.5439999999999,-1,115,110
29,164,1472.9279999999999,-1,103,110
29,165,1218.8139999999999,-1,90,80
29,166,1613.504,-1,80,72
29,167,1653.807,1,93,80
29,168,1194.884,-1,80,90
29,169,1343.629,-1,88,80
29,170,1314.318,1,80,70
29,171,1308.85,-1,80,93
29,172,1679.965,1,82,80
29,173,1943.104,1,50,41
29,174,1272.624,-1,96,110
29,175,1240.974,-1,80,85
29,176,2196.9610000000002,-1,60,50
29,177,1192.279,-1,41,50
29,178,1584.455,1,110,96
29,179,1190.9560000000001,-1,72,80
29,180,1184.588,-1,49,50
29,181,1187.92,-1,43,50
29,182,2085.742,-1,51,50
29,183,2533.759,-1,112,110
29,184,1501.316,-1,40,50
29,185,1459.219,-1,50,51
29,186,1220.474,-1,85,80
29,187,1540.779,-1,50,49
29,188,1720.121,1,50,43
29,189,1280.8519999999999,-1,80,82
29,190,1280.357,-1,50,60
29,191,1848.84,1,53,50
29,192,1675.457,1,122,110
29,193,1407.4779999999994,-1,67,80
29,194,2247.346,1,80,67
29,195,1306.483,-1,70,80
29,196,1587.888,-1,110,122
29,197,1319.003,-1,110,115
29,198,1630.271,-1,110,112
29,199,2245.0570000000002,1,110,103
30,40,2622.6209999999996,-1,110,131
30,41,1759.82,-1,47,50
30,42,1569.9660000000001,-1,50,44
30,43,1263.868,-1,57,50
30,44,1502.9270000000001,-1,42,50
30,45,1721.158,1,108,110
30,46,1360.625,-1,78,80
30,47,3261.429,1,110,92
30,48,1543.6270000000006,-1,50,48
30,49,1838.463,1,110,101
30,50,1697.884,-1,46,50
30,51,2697.758,-1,80,83
30,52,1293.9,-1,50,56
30,53,1246.1860000000001,-1,50,47
30,54,1392.368,-1,110,124
30,55,2027.396,-1,91,80
30,56,1788.23,-1,64,80
30,57,1729.763,-1,83,80
30,58,2108.115,-1,101,110
30,59,1544.911,-1,56,50
30,60,2638.9709999999995,1,50,42
30,61,2949.097,-1,110,117
30,62,1586.0520000000001,-1,77,80
30,63,1955.23,-1,80,91
30,64,1639.1670000000001,-1,44,50
30,65,2058.719,-1,50,57
30,66,2469.654,-1,50,46
30,67,1890.7879999999998,-1,110,108
30,68,2168.348,1,133,110
30,69,2051.107,1,131,110
30,70,4226.391,1,126,110
30,71,1854.214,-1,110,133
30,72,1945.727,-1,110,126
30,73,1464.471,-1,48,50
30,74,1580.989,-1,80,77
30,75,3685.552,-1,117,110
30,76,1675.531,-1,80,64
30,77,1582.4379999999999,-1,80,78
30,78,2956.2059999999997,-1,124,110
30,79,1566.142,-1,92,110
30,120,1603.795,-1,128,110
30,121,1323.22,-1,50,58
30,122,3588.383,1,54,50
30,123,2471.817,-1,80,69
30,124,1571.3329999999999,-1,105,110
30,125,1910.5770000000002,-1,55,50
30,126,2766.492,1,96,80
30,127,4175.806,-1,80,75
30,128,1537.506,-1,110,128
30,129,3805.577,-1,59,50
30,130,1168.33,-1,110,119
30,131,1065.975,-1,52,50
30,132,2202.548,1,58,50
30,133,2837.009,-1,119,110
30,134,3346.425,1,74,80
30,135,1614.761,-1,86,80
30,136,1683.858,-1,66,80
30,137,1578.828,-1,50,59
30,138,3319.5570000000002,-1,94,110
30,139,2298.089,1,110,87
30,140,1907.8829999999998,-1,75,80
30,141,4006.0240000000003,-1,50,45
30,142,2118.075,-1,89,110
30,143,4360.044,-1,80,94
30,144,2469.076,1,110,98
30,145,2419.886,1,94,80
30,146,5145.442,1,110,94
30,147,5647.618,-1,80,66
30,148,1214.361,-1,50,54
30,149,1420.7379999999994,-1,98,110
30,150,1675.888,-1,50,52
30,151,1319.379,1,110,89
30,152,1349.761,-1,87,110
30,153,2184.928,-1,110,105
30,154,1432.6670000000001,-1,80,96
30,155,1191.866,-1,80,86
30,156,1463.003,-1,50,55
30,157,1513.214,-1,80,74
30,158,1299.286,-1,45,50
30,159,1350.305,-1,69,80
30,200,4951.973,-1,50,53
30,201,1892.671,1,50,40
30,202,1307.743,1,80,88
30,203,3760.532,1,115,110
30,204,1488.636,1,103,110
30,205,2358.702,1,90,80
30,206,3096.968,1,80,72
30,207,1104.932,1,93,80
30,208,1242.6889999999999,-1,80,90
30,209,1565.027,-1,88,80
30,210,2800.238,1,80,70
30,211,1284.573,-1,80,93
30,212,2681.524000000001,1,82,80
30,213,3887.4570000000003,1,50,41
30,214,2981.58,-1,96,110
30,215,1766.287,-1,80,85
30,216,3680.474,1,60,50
30,217,1529.816,-1,41,50
30,218,1301.982,1,110,96
30,219,2182.417,-1,72,80
30,220,4965.714,1,49,50
30,221,1465.364,-1,43,50
30,222,2571.036,1,51,50
30,223,2076.659,-1,112,110
30,224,1933.2679999999998,-1,40,50
30,225,1267.656,-1,50,51
30,226,1443.931,1,85,80
30,227,2438.279,1,50,49
30,228,2751.097,1,50,43
30,229,1564.7220000000002,-1,80,82
30,230,2352.118,-1,50,60
30,231,1822.72,-1,53,50
30,232,1442.999,-1,122,110
30,233,1255.61,-1,67,80
30,234,2348.812,1,80,67
30,235,1643.121,-1,70,80
30,236,1182.747,-1,110,122
30,237,1408.4779999999994,-1,110,115
30,238,1268.188,-1,110,112
30,239,2633.434,-1,110,103
31,0,6096.3359999999975,-1,110,131
31,1,2154.377,-1,47,50
31,2,2968.935,-1,50,44
31,3,4781.326,-1,57,50
31,4,1575.279,1,42,50
31,5,2038.495,-1,108,110
31,6,2003.743,1,78,80
31,7,2588.606,1,110,92
31,8,1709.4029999999998,-1,50,48
31,9,5923.665,-1,110,101
31,10,1410.3770000000006,1,46,50
31,11,1544.886,-1,80,83
31,12,1265.558,-1,50,56
31,13,1523.132,-1,50,47
31,14,1942.8039999999999,-1,110,124
31,15,1891.6989999999998,1,91,80
31,16,1478.435,1,64,80
31,17,2422.093,-1,83,80
31,18,3354.1479999999997,-1,101,110
31,19,2758.789,1,56,50
31,20,2038.497,1,50,42
31,21,1830.465,-1,110,117
31,22,1524.358,-1,77,80
31,23,1563.865,-1,80,91
31,24,1462.32,-1,44,50
31,25,1475.7220000000002,-1,50,57
31,26,2483.344,-1,50,46
31,27,1105.6580000000001,-1,110,108
31,28,2386.7110000000002,-1,133,110
31,29,1200.0330000000001,1,131,110
31,30,1258.244,1,126,110
31,31,1657.223,1,110,133
31,32,2445.093,1,110,126
31,33,1654.7820000000006,-1,48,50
31,34,1409.967,1,80,77
31,35,1320.501,1,117,110
31,36,4470.013,1,80,64
31,37,1087.963,1,80,78
31,38,1599.5320000000006,1,124,110
31,39,1193.386,-1,92,110
31,80,2478.231,1,128,110
31,81,3630.775,1,50,58
31,82,3216.84,1,54,50
31,83,1907.1779999999999,1,80,69
31,84,1991.615,-1,105,110
31,85,2330.754,1,55,50
31,86,1832.629,-1,96,80
31,87,2459.485,-1,80,75
31,88,1614.519,1,110,128
31,89,1643.889,1,59,50
31,90,1259.359,-1,110,119
31,91,2539.209,1,52,50
31,92,1201.458,1,58,50
31,93,1862.2079999999999,-1,119,110
31,94,2162.554,1,74,80
31,95,3274.205,1,86,80
31,96,3553.158,1,66,80
31,97,1751.274,1,50,59
31,98,1665.866,1,94,110
31,99,2211.919,1,110,87
31,100,2514.2670000000007,1,75,80
31,101,1678.705,1,50,45
31,102,1581.779,1,89,110
31,103,1039.137,1,80,94
31,104,1370.4979999999996,1,110,98
31,105,1347.276,1,94,80
31,106,1443.886,1,110,94
31,107,2595.885,1,80,66
31,108,5622.2419999999975,1,50,54
31,109,6046.188,-1,98,110
31,110,2570.55,1,50,52
31,111,2418.286,-1,110,89
31,112,1731.1589999999999,1,87,110
31,113,2514.337,1,110,105
31,114,2020.3229999999999,1,80,96
31,115,2360.902,1,80,86
31,116,4348.162,1,50,55
31,117,4003.413,-1,80,74
31,118,2135.754,1,45,50
31,119,1656.707,1,69,80
31,160,3781.5840000000003,1,50,53
31,161,1458.75,1,50,40
31,162,2584.8520000000008,1,80,88
31,163,1880.184,1,115,110
31,164,2231.882,1,103,110
31,165,1874.35,1,90,80
31,166,3635.2470000000003,1,80,72
31,167,3591.6809999999996,1,93,80
31,168,3609.961,1,80,90
31,169,1058.188,1,88,80
31,170,1874.0479999999998,1,80,70
31,171,4384.535,-1,80,93
31,172,1214.507,1,82,80
31,173,1271.0330000000001,1,50,41
31,174,2715.3390000000004,1,96,110
31,175,1162.259,1,80,85
31,176,1627.316,1,60,50
31,177,1088.588,1,41,50
31,178,1152.4,1,110,96
31,179,1769.507,1,72,80
31,180,2095.48,1,49,50
31,181,1013.9830000000001,1,43,50
31,182,2985.979000000001,1,51,50
31,183,1527.625,1,112,110
31,184,1651.023,-1,40,50
31,185,1963.991,1,50,51
31,186,1478.497,1,85,80
31,187,1790.611,-1,50,49
31,188,1371.453,1,50,43
31,189,2858.395,1,80,82
31,190,1692.7220000000002,1,50,60
31,191,1104.2830000000001,1,53,50
31,192,1540.489,-1,122,110
31,193,2075.597,-1,67,80
31,194,1490.401,1,80,67
31,195,1018.253,1,70,80
31,196,1569.109,1,110,122
31,197,1296.545,1,110,115
31,198,1447.445,-1,110,112
31,199,1812.507,1,110,103
32,0,4973.7840000000015,-1,110,131
32,1,2447.3070000000002,-1,47,50
32,2,2449.867,-1,50,44
32,3,2613.994,1,57,50
32,4,2133.02,-1,42,50
32,5,3913.3979999999997,-1,108,110
32,6,3603.907,-1,78,80
32,7,9125.077,-1,110,92
32,8,4338.833,-1,50,48
32,9,7992.4630000000025,1,110,101
32,10,7006.809,1,46,50
32,11,3355.692,-1,80,83
32,12,3626.428,-1,50,56
32,13,3624.866,1,50,47
32,14,2910.647,-1,110,124
32,15,4485.889,1,91,80
32,16,3688.215,-1,64,80
32,17,4392.83,-1,83,80
32,18,3815.968,-1,101,110
32,19,4269.464,1,56,50
32,20,7251.211999999998,1,50,42
32,21,6089.505,-1,110,117
32,22,6634.553000000001,1,77,80
32,23,5592.339,-1,80,91
