,DATA_FILE,TRIAL_INDEX,CURRENT_MSG_TEXT,CURRENT_MSG_INTEREST_AREAS,CURRENT_MSG_INTEREST_AREA_ID,CURRENT_MSG_TIME,CURRENT_MSG_FIX_START,CURRENT_MSG_FIX_END,CURRENT_MSG_INDEX,CHOICE_RT,BlockType,IP_START_TIME,IP_DURATION,IP_END_TIME,trial_type
1,P22.edf,1,START_DRAWING,.,.,77,76,376,2,3836.809,FEWEST,3208802,3821,3212623,Practice1
332,P22.edf,1,Chose_Left,.,.,3897,3752,3897,333,3836.809,FEWEST,3208802,3821,3212623,Practice1
333,P22.edf,1,ChoseLeft,.,.,3897,3752,3897,334,3836.809,FEWEST,3208802,3821,3212623,Practice1
335,P22.edf,2,START_DRAWING,.,.,82,80,340,2,6228.755999999999,FEWEST,3222268,6208,3228476,Practice1
1033,P22.edf,2,Chose_Right,[3],3,6288,5806,6288,700,6228.755999999999,FEWEST,3222268,6208,3228476,Practice1
1035,P22.edf,3,START_DRAWING,.,.,76,74,304,2,8686.632,FEWEST,3235618,8675,3244293,Practice1
1943,P22.edf,3,Chose_Right,[3],3,8749,8608,8749,910,8686.632,FEWEST,3235618,8675,3244293,Practice1
1944,P22.edf,3,ChoseRight,[3],3,8749,8608,8749,911,8686.632,FEWEST,3235618,8675,3244293,Practice1
1947,P22.edf,4,START_DRAWING,[2],2,83,80,232,3,8963.741,FEWEST,3258850,8946,3267796,Practice1
2768,P22.edf,4,Chose_Right,[3],3,9026,8286,9026,824,8963.741,FEWEST,3258850,8946,3267796,Practice1
2770,P22.edf,5,START_DRAWING,.,.,82,80,526,2,2653.3740000000003,FEWEST,3277600,2636,3280236,Practice1
2930,P22.edf,5,Chose_Right,[2],2,2716,2512,2716,162,2653.3740000000003,FEWEST,3277600,2636,3280236,Practice1
2931,P22.edf,5,ChoseRight,[2],2,2716,2512,2716,163,2653.3740000000003,FEWEST,3277600,2636,3280236,Practice1
2933,P22.edf,6,START_DRAWING,.,.,84,82,464,2,3622.1020000000003,FEWEST,3287050,3602,3290652,Practice1
3198,P22.edf,6,TRACKER_TIME 4 3289968.933,[3],3,3001,2804,3274,267,3622.1020000000003,FEWEST,3287050,3602,3290652,Practice1
3280,P22.edf,6,Chose_Left,[2],2,3684,3352,3684,349,3622.1020000000003,FEWEST,3287050,3602,3290652,Practice1
3282,P22.edf,7,START_DRAWING,.,.,83,81,314,2,9015.304,FEWEST,3295167,8997,3304164,Practice1
4153,P22.edf,7,Chose_Right,[3],3,9078,8680,9078,873,9015.304,FEWEST,3295167,8997,3304164,Practice1
4155,P22.edf,8,START_DRAWING,.,.,75,74,310,2,10348.071,FEWEST,3309150,10333,3319483,Practice1
5239,P22.edf,8,Chose_Left,[2],2,10407,10402,10407,1086,10348.071,FEWEST,3309150,10333,3319483,Practice1
5240,P22.edf,8,ChoseLeft,[2],2,10407,10402,10407,1087,10348.071,FEWEST,3309150,10333,3319483,Practice1
5242,P22.edf,9,START_DRAWING,.,.,77,75,302,2,8040.831999999999,FEWEST,3324849,8025,3332874,Practice1
6097,P22.edf,9,Chose_Right,[3],3,8100,7382,8100,857,8040.831999999999,FEWEST,3324849,8025,3332874,Practice1
6099,P22.edf,10,START_DRAWING,.,.,74,72,318,2,7147.7880000000005,FEWEST,3337932,7142,3345074,Practice1
6803,P22.edf,10,Chose_Right,[3],3,7214,6784,7214,706,7147.7880000000005,FEWEST,3337932,7142,3345074,Practice1
6804,P22.edf,10,ChoseRight,[3],3,7214,6784,7214,707,7147.7880000000005,FEWEST,3337932,7142,3345074,Practice1
6806,P22.edf,11,START_DRAWING,.,.,68,67,362,2,3631.6409999999996,MOST,3360599,3627,3364226,Practice1
7151,P22.edf,11,Chose_Left,[2],2,3694,3208,3694,347,3631.6409999999996,MOST,3360599,3627,3364226,Practice1
7152,P22.edf,11,ChoseLeft,[2],2,3694,3208,3694,348,3631.6409999999996,MOST,3360599,3627,3364226,Practice1
7154,P22.edf,12,START_DRAWING,.,.,80,78,298,2,4057.566,MOST,3368082,4041,3372123,Practice1
7558,P22.edf,12,Chose_Left,[2],2,4119,3588,4119,406,4057.566,MOST,3368082,4041,3372123,Practice1
7560,P22.edf,13,START_DRAWING,.,.,83,81,296,2,3112.991,MOST,3375915,3095,3379010,Practice1
7883,P22.edf,13,Chose_Left,[2],2,3176,3102,3176,325,3112.991,MOST,3375915,3095,3379010,Practice1
7885,P22.edf,14,START_DRAWING,.,.,70,68,328,2,3194.328,MOST,3384148,3190,3387338,Practice1
8190,P22.edf,14,Chose_Right,[3],3,3258,2934,3258,307,3194.328,MOST,3384148,3190,3387338,Practice1
8191,P22.edf,14,ChoseRight,[3],3,3258,2934,3258,308,3194.328,MOST,3384148,3190,3387338,Practice1
8193,P22.edf,15,START_DRAWING,.,.,80,78,342,2,3623.6609999999996,MOST,3391314,3617,3394931,Practice1
8510,P22.edf,15,Chose_Left,[2],2,3695,3372,3695,319,3623.6609999999996,MOST,3391314,3617,3394931,Practice1
8511,P22.edf,15,ChoseLeft,[2],2,3695,3372,3695,320,3623.6609999999996,MOST,3391314,3617,3394931,Practice1
8513,P22.edf,16,START_DRAWING,.,.,70,68,328,2,4148.357,MOST,3399698,4143,3403841,Practice1
8945,P22.edf,16,Chose_Right,[3],3,4211,3822,4211,434,4148.357,MOST,3399698,4143,3403841,Practice1
8947,P22.edf,17,START_DRAWING,.,.,71,68,282,2,4142.6359999999995,MOST,3407980,4134,3412114,Practice1
9311,P22.edf,17,TRACKER_TIME 6 3411649.457,[2],2,3737,3626,4202,366,4142.6359999999995,MOST,3407980,4134,3412114,Practice1
9340,P22.edf,17,Chose_Left,[2],2,4202,3626,4202,395,4142.6359999999995,MOST,3407980,4134,3412114,Practice1
9341,P22.edf,17,ChoseLeft,[2],2,4202,3626,4202,396,4142.6359999999995,MOST,3407980,4134,3412114,Practice1
9343,P22.edf,18,START_DRAWING,.,.,79,77,108,2,6318.975,MOST,3415897,6305,3422202,Practice1
9955,P22.edf,18,Chose_Left,[2],2,6382,6022,6382,614,6318.975,MOST,3415897,6305,3422202,Practice1
9956,P22.edf,18,ChoseLeft,[2],2,6382,6022,6382,615,6318.975,MOST,3415897,6305,3422202,Practice1
9958,P22.edf,19,START_DRAWING,.,.,75,73,114,2,5337.645,MOST,3426847,5329,3432176,Practice1
10511,P22.edf,19,Chose_Left,[2],2,5402,5282,5402,555,5337.645,MOST,3426847,5329,3432176,Practice1
10512,P22.edf,19,ChoseLeft,[2],2,5402,5282,5402,556,5337.645,MOST,3426847,5329,3432176,Practice1
10514,P22.edf,20,START_DRAWING,.,.,79,77,318,2,2847.6440000000002,MOST,3437063,2834,3439897,Practice1
10762,P22.edf,20,Chose_Right,[3],3,2911,2332,2911,250,2847.6440000000002,MOST,3437063,2834,3439897,Practice1
10763,P22.edf,20,ChoseRight,[3],3,2911,2332,2911,251,2847.6440000000002,MOST,3437063,2834,3439897,Practice1
10766,P22.edf,21,START_DRAWING,[2],2,77,74,238,3,9331.094000000001,FEWEST,3463529,9320,3472849,Practice2
11537,P22.edf,21,TRACKER_TIME 7 3471664.923,[2],2,8210,8006,8302,774,9331.094000000001,FEWEST,3463529,9320,3472849,Practice2
11697,P22.edf,21,Chose_Right,[3],3,9394,9122,9394,934,9331.094000000001,FEWEST,3463529,9320,3472849,Practice2
11698,P22.edf,21,ChoseRight,[3],3,9394,9122,9394,935,9331.094000000001,FEWEST,3463529,9320,3472849,Practice2
11700,P22.edf,22,START_DRAWING,.,.,69,67,270,2,3056.906,FEWEST,3477196,3052,3480248,Practice2
11997,P22.edf,22,Chose_Left,[2],2,3119,2768,3119,299,3056.906,FEWEST,3477196,3052,3480248,Practice2
11999,P22.edf,23,START_DRAWING,.,.,71,69,126,2,5601.269,FEWEST,3486196,5596,3491792,Practice2
12542,P22.edf,23,Chose_Left,[2],2,5665,5238,5665,545,5601.269,FEWEST,3486196,5596,3491792,Practice2
12543,P22.edf,23,ChoseLeft,[2],2,5665,5238,5665,546,5601.269,FEWEST,3486196,5596,3491792,Practice2
12545,P22.edf,24,START_DRAWING,.,.,75,73,92,2,3393.05,FEWEST,3497296,3383,3500679,Practice2
12884,P22.edf,24,Chose_Right,[3],3,3456,3210,3456,341,3393.05,FEWEST,3497296,3383,3500679,Practice2
12885,P22.edf,24,ChoseRight,[3],3,3456,3210,3456,342,3393.05,FEWEST,3497296,3383,3500679,Practice2
12887,P22.edf,25,START_DRAWING,.,.,74,73,290,2,3317.907,FEWEST,3503996,3308,3507304,Practice2
13175,P22.edf,25,Chose_Left,[2],2,3381,3082,3381,290,3317.907,FEWEST,3503996,3308,3507304,Practice2
13176,P22.edf,25,ChoseLeft,[2],2,3381,3082,3381,291,3317.907,FEWEST,3503996,3308,3507304,Practice2
13178,P22.edf,26,START_DRAWING,.,.,78,77,304,2,5781.177,FEWEST,3511146,5766,3516912,Practice2
13808,P22.edf,26,Chose_Right,[3],3,5843,5578,5843,632,5781.177,FEWEST,3511146,5766,3516912,Practice2
13809,P22.edf,26,ChoseRight,[3],3,5843,5578,5843,633,5781.177,FEWEST,3511146,5766,3516912,Practice2
13811,P22.edf,27,START_DRAWING,.,.,79,77,82,2,5855.728,FEWEST,3521528,5838,3527366,Practice2
14349,P22.edf,27,Chose_Left,[3],3,5915,5486,5915,540,5855.728,FEWEST,3521528,5838,3527366,Practice2
14351,P22.edf,28,START_DRAWING,.,.,74,72,288,2,3283.494,FEWEST,3530095,3273,3533368,Practice2
14448,P22.edf,28,TRACKER_TIME 8 3531679.916,.,.,1657,.,.,99,3283.494,FEWEST,3530095,3273,3533368,Practice2
14676,P22.edf,28,Chose_Right,[3],3,3345,3126,3345,327,3283.494,FEWEST,3530095,3273,3533368,Practice2
14677,P22.edf,28,ChoseRight,[3],3,3345,3126,3345,328,3283.494,FEWEST,3530095,3273,3533368,Practice2
14679,P22.edf,29,START_DRAWING,.,.,72,70,330,2,2253.3160000000003,FEWEST,3535995,2244,3538239,Practice2
14893,P22.edf,29,Chose_Left,[2],2,2314,2084,2314,216,2253.3160000000003,FEWEST,3535995,2244,3538239,Practice2
14894,P22.edf,29,ChoseLeft,[2],2,2314,2084,2314,217,2253.3160000000003,FEWEST,3535995,2244,3538239,Practice2
14896,P22.edf,30,START_DRAWING,.,.,77,76,112,2,2061.13,FEWEST,3542295,2047,3544342,Practice2
15074,P22.edf,30,Chose_Left,[2],2,2123,1834,2123,180,2061.13,FEWEST,3542295,2047,3544342,Practice2
15076,P22.edf,31,START_DRAWING,.,.,76,74,244,2,1539.253,MOST,3557661,1529,3559190,Practice2
15247,P22.edf,31,Chose_Right,[3],3,1603,1186,1603,173,1539.253,MOST,3557661,1529,3559190,Practice2
15249,P22.edf,32,START_DRAWING,.,.,72,70,280,2,1468.4679999999998,MOST,3561911,1462,3563373,Practice2
15402,P22.edf,32,Chose_Right,[3],3,1532,1300,1532,155,1468.4679999999998,MOST,3561911,1462,3563373,Practice2
15404,P22.edf,33,START_DRAWING,.,.,84,81,320,2,1389.035,MOST,3571260,1370,3572630,Practice2
15548,P22.edf,33,Chose_Right,[3],3,1451,970,1451,146,1389.035,MOST,3571260,1370,3572630,Practice2
15549,P22.edf,33,ChoseRight,[3],3,1451,970,1451,147,1389.035,MOST,3571260,1370,3572630,Practice2
15551,P22.edf,34,START_DRAWING,.,.,74,72,254,2,1332.861,MOST,3578027,1323,3579350,Practice2
15688,P22.edf,34,Chose_Right,[3],3,1395,948,1395,139,1332.861,MOST,3578027,1323,3579350,Practice2
15690,P22.edf,35,START_DRAWING,.,.,69,67,288,2,1306.506,MOST,3584794,1300,3586094,Practice2
15830,P22.edf,35,Chose_Right,[3],3,1367,1152,1367,142,1306.506,MOST,3584794,1300,3586094,Practice2
15831,P22.edf,35,ChoseRight,[3],3,1367,1152,1367,143,1306.506,MOST,3584794,1300,3586094,Practice2
15833,P22.edf,36,START_DRAWING,.,.,70,68,90,2,2762.928,MOST,3591777,2756,3594533,Practice2
16116,P22.edf,36,Chose_Left,[2],2,2824,2610,2824,285,2762.928,MOST,3591777,2756,3594533,Practice2
16118,P22.edf,37,START_DRAWING,.,.,83,81,108,2,3782.548,MOST,3598160,3765,3601925,Practice2
16491,P22.edf,37,Chose_Left,[2],2,3846,3704,3846,375,3782.548,MOST,3598160,3765,3601925,Practice2
16492,P22.edf,37,ChoseLeft,[2],2,3846,3704,3846,376,3782.548,MOST,3598160,3765,3601925,Practice2
16494,P22.edf,38,START_DRAWING,.,.,75,73,344,2,2387.2929999999997,MOST,3606660,2377,3609037,Practice2
16722,P22.edf,38,Chose_Right,[3],3,2450,1772,2450,230,2387.2929999999997,MOST,3606660,2377,3609037,Practice2
16723,P22.edf,38,ChoseRight,[3],3,2450,1772,2450,231,2387.2929999999997,MOST,3606660,2377,3609037,Practice2
16725,P22.edf,39,START_DRAWING,.,.,82,80,332,2,3141.413,MOST,3616193,3123,3619316,Practice2
16992,P22.edf,39,Chose_Left,[2],2,3203,2186,3203,269,3141.413,MOST,3616193,3123,3619316,Practice2
16993,P22.edf,39,ChoseLeft,[2],2,3203,2186,3203,270,3141.413,MOST,3616193,3123,3619316,Practice2
16995,P22.edf,40,START_DRAWING,.,.,73,72,312,2,3698.759,MOST,3622727,3687,3626414,Beginning
17410,P22.edf,40,Chose_Right,[3],3,3759,3478,3759,417,3698.759,MOST,3622727,3687,3626414,Beginning
17411,P22.edf,40,ChoseRight,[3],3,3759,3478,3759,418,3698.759,MOST,3622727,3687,3626414,Beginning
17413,P22.edf,41,START_DRAWING,.,.,70,68,302,2,4261.735,FEWEST,3715758,4252,3720010,Experiment
17858,P22.edf,41,Chose_Left,[2],2,4320,4026,4320,447,4261.735,FEWEST,3715758,4252,3720010,Experiment
17860,P22.edf,42,START_DRAWING,.,.,65,63,284,2,3559.258,FEWEST,3723257,3555,3726812,Experiment
18253,P22.edf,42,Chose_Right,[3],3,3618,3584,3618,395,3559.258,FEWEST,3723257,3555,3726812,Experiment
18254,P22.edf,42,ChoseRight,[3],3,3618,3584,3618,396,3559.258,FEWEST,3723257,3555,3726812,Experiment
18256,P22.edf,43,START_DRAWING,.,.,76,74,274,2,3754.4640000000004,FEWEST,3731224,3740,3734964,Experiment
18652,P22.edf,43,Chose_Right,[3],3,3814,3166,3814,398,3754.4640000000004,FEWEST,3731224,3740,3734964,Experiment
18653,P22.edf,43,ChoseRight,[3],3,3814,3166,3814,399,3754.4640000000004,FEWEST,3731224,3740,3734964,Experiment
18655,P22.edf,44,START_DRAWING,.,.,66,64,292,2,2431.751,FEWEST,3741024,2427,3743451,Experiment
18896,P22.edf,44,Chose_Left,[2],2,2491,2232,2491,243,2431.751,FEWEST,3741024,2427,3743451,Experiment
18897,P22.edf,44,ChoseLeft,[2],2,2491,2232,2491,244,2431.751,FEWEST,3741024,2427,3743451,Experiment
18899,P22.edf,45,START_DRAWING,.,.,75,74,78,2,2199.342,FEWEST,3748574,2189,3750763,Experiment
19110,P22.edf,45,Chose_Left,[2],2,2263,2050,2263,213,2199.342,FEWEST,3748574,2189,3750763,Experiment
19112,P22.edf,46,START_DRAWING,.,.,80,78,278,2,3269.922,FEWEST,3755140,3255,3758395,Experiment
19441,P22.edf,46,Chose_Left,[2],2,3333,3202,3333,331,3269.922,FEWEST,3755140,3255,3758395,Experiment
19442,P22.edf,46,ChoseLeft,[2],2,3333,3202,3333,332,3269.922,FEWEST,3755140,3255,3758395,Experiment
19444,P22.edf,47,START_DRAWING,.,.,77,75,94,2,6606.698,FEWEST,3764623,6594,3771217,Experiment
19843,P22.edf,47,TRACKER_TIME 11 3768375.720,[3],3,3827,3554,3914,401,6606.698,FEWEST,3764623,6594,3771217,Experiment
20134,P22.edf,47,Chose_Left,[2],2,6669,6434,6669,692,6606.698,FEWEST,3764623,6594,3771217,Experiment
20136,P22.edf,48,START_DRAWING,.,.,71,.,.,2,3642.1459999999997,FEWEST,3776839,3637,3780476,Experiment
20506,P22.edf,48,Chose_Right,[3],3,3706,3482,3706,372,3642.1459999999997,FEWEST,3776839,3637,3780476,Experiment
20507,P22.edf,48,ChoseRight,[3],3,3706,3482,3706,373,3642.1459999999997,FEWEST,3776839,3637,3780476,Experiment
20509,P22.edf,49,START_DRAWING,.,.,81,79,288,2,5213.48,FEWEST,3784923,5198,3790121,Experiment
21106,P22.edf,49,Chose_Right,[3],3,5277,5166,5277,599,5213.48,FEWEST,3784923,5198,3790121,Experiment
21107,P22.edf,49,ChoseRight,[3],3,5277,5166,5277,600,5213.48,FEWEST,3784923,5198,3790121,Experiment
21109,P22.edf,50,START_DRAWING,.,.,73,70,312,2,5511.334,FEWEST,3796922,5503,3802425,Experiment
21785,P22.edf,50,Chose_Right,[3],3,5573,5216,5573,678,5511.334,FEWEST,3796922,5503,3802425,Experiment
21787,P22.edf,51,START_DRAWING,.,.,77,75,304,2,2007.957,FEWEST,3807189,1996,3809185,Experiment
21984,P22.edf,51,Chose_Left,[2],2,2071,1742,2071,199,2007.957,FEWEST,3807189,1996,3809185,Experiment
21985,P22.edf,51,ChoseLeft,[2],2,2071,1742,2071,200,2007.957,FEWEST,3807189,1996,3809185,Experiment
21987,P22.edf,52,START_DRAWING,.,.,68,66,124,2,3124.5209999999997,FEWEST,3813622,3115,3816737,Experiment
22295,P22.edf,52,Chose_Right,[3],3,3181,2912,3181,310,3124.5209999999997,FEWEST,3813622,3115,3816737,Experiment
22296,P22.edf,52,ChoseRight,[3],3,3181,2912,3181,311,3124.5209999999997,FEWEST,3813622,3115,3816737,Experiment
22298,P22.edf,53,START_DRAWING,.,.,83,81,298,2,1978.076,FEWEST,3820755,1959,3822714,Experiment
22501,P22.edf,53,Chose_Left,[2],2,2040,1708,2040,205,1978.076,FEWEST,3820755,1959,3822714,Experiment
22502,P22.edf,53,ChoseLeft,[2],2,2040,1708,2040,206,1978.076,FEWEST,3820755,1959,3822714,Experiment
22504,P22.edf,54,START_DRAWING,.,.,69,.,.,2,2508.548,FEWEST,3831488,2505,3833993,Experiment
22764,P22.edf,54,Chose_Right,[3],3,2571,2280,2571,262,2508.548,FEWEST,3831488,2505,3833993,Experiment
22765,P22.edf,54,ChoseRight,[3],3,2571,2280,2571,263,2508.548,FEWEST,3831488,2505,3833993,Experiment
22767,P22.edf,55,START_DRAWING,.,.,79,.,.,2,3907.2459999999996,FEWEST,3838005,3892,3841897,Experiment
23216,P22.edf,55,Chose_Right,[3],3,3969,3680,3969,451,3907.2459999999996,FEWEST,3838005,3892,3841897,Experiment
23218,P22.edf,56,START_DRAWING,.,.,82,80,86,2,3482.062,FEWEST,3847488,3465,3850953,Experiment
23589,P22.edf,56,Chose_Right,[3],3,3545,3256,3545,373,3482.062,FEWEST,3847488,3465,3850953,Experiment
23590,P22.edf,56,ChoseRight,[3],3,3545,3256,3545,374,3482.062,FEWEST,3847488,3465,3850953,Experiment
23592,P22.edf,57,START_DRAWING,.,.,79,77,256,2,1823.3770000000002,FEWEST,3857055,1808,3858863,Experiment
23774,P22.edf,57,Chose_Left,[2],2,1885,1536,1885,184,1823.3770000000002,FEWEST,3857055,1808,3858863,Experiment
23775,P22.edf,57,ChoseLeft,[2],2,1885,1536,1885,185,1823.3770000000002,FEWEST,3857055,1808,3858863,Experiment
23777,P22.edf,58,START_DRAWING,.,.,77,75,282,2,5111.944,FEWEST,3862805,5100,3867905,Experiment
24245,P22.edf,58,Chose_Left,[2],2,5175,4850,5175,470,5111.944,FEWEST,3862805,5100,3867905,Experiment
24246,P22.edf,58,ChoseLeft,[2],2,5175,4850,5175,471,5111.944,FEWEST,3862805,5100,3867905,Experiment
24248,P22.edf,59,START_DRAWING,.,.,69,67,118,2,4920.474,FEWEST,3872621,4915,3877536,Experiment
24720,P22.edf,59,Chose_Left,[2],2,4982,4724,4982,474,4920.474,FEWEST,3872621,4915,3877536,Experiment
24721,P22.edf,59,ChoseLeft,[2],2,4982,4724,4982,475,4920.474,FEWEST,3872621,4915,3877536,Experiment
24723,P22.edf,60,START_DRAWING,.,.,65,63,254,2,1869.935,FEWEST,3882271,1864,3884135,Experiment
24912,P22.edf,60,Chose_Left,[2],2,1927,1620,1927,191,1869.935,FEWEST,3882271,1864,3884135,Experiment
24914,P22.edf,61,START_DRAWING,.,.,83,81,232,2,1705.8110000000001,FEWEST,3888287,1688,3889975,Experiment
25083,P22.edf,61,Chose_Left,[2],2,1769,1448,1769,171,1705.8110000000001,FEWEST,3888287,1688,3889975,Experiment
25084,P22.edf,61,ChoseLeft,[2],2,1769,1448,1769,172,1705.8110000000001,FEWEST,3888287,1688,3889975,Experiment
25086,P22.edf,62,START_DRAWING,.,.,69,.,.,2,3083.54,FEWEST,3893537,3078,3896615,Experiment
25360,P22.edf,62,Chose_Left,[2],2,3145,2526,3145,276,3083.54,FEWEST,3893537,3078,3896615,Experiment
25361,P22.edf,62,ChoseLeft,[2],2,3145,2526,3145,277,3083.54,FEWEST,3893537,3078,3896615,Experiment
25363,P22.edf,63,START_DRAWING,.,.,70,.,.,2,2474.714,FEWEST,3900804,2467,3903271,Experiment
25609,P22.edf,63,Chose_Left,[2],2,2535,2172,2535,248,2474.714,FEWEST,3900804,2467,3903271,Experiment
25611,P22.edf,64,START_DRAWING,.,.,78,76,124,2,2272.349,FEWEST,3906604,2258,3908862,Experiment
25854,P22.edf,64,Chose_Left,[2],2,2334,1924,2334,245,2272.349,FEWEST,3906604,2258,3908862,Experiment
25856,P22.edf,65,START_DRAWING,.,.,76,.,.,2,3790.48,FEWEST,3912670,3777,3916447,Experiment
26268,P22.edf,65,Chose_Left,[2],2,3851,3672,3851,414,3790.48,FEWEST,3912670,3777,3916447,Experiment
26269,P22.edf,65,ChoseLeft,[2],2,3851,3672,3851,415,3790.48,FEWEST,3912670,3777,3916447,Experiment
26271,P22.edf,66,START_DRAWING,.,.,70,.,.,2,2046.0620000000001,FEWEST,3920070,2042,3922112,Experiment
26471,P22.edf,66,Chose_Left,[2],2,2110,.,.,202,2046.0620000000001,FEWEST,3920070,2042,3922112,Experiment
26472,P22.edf,66,ChoseLeft,[2],2,2110,.,.,203,2046.0620000000001,FEWEST,3920070,2042,3922112,Experiment
26474,P22.edf,67,START_DRAWING,.,.,70,68,218,2,3822.2509999999997,FEWEST,3925670,3817,3929487,Experiment
26931,P22.edf,67,Chose_Right,[3],3,3885,3328,3885,459,3822.2509999999997,FEWEST,3925670,3817,3929487,Experiment
26932,P22.edf,67,ChoseRight,[3],3,3885,3328,3885,460,3822.2509999999997,FEWEST,3925670,3817,3929487,Experiment
26934,P22.edf,68,START_DRAWING,.,.,74,72,256,2,3347.54,FEWEST,3932420,3338,3935758,Experiment
27268,P22.edf,68,Chose_Left,[2],2,3410,3108,3410,336,3347.54,FEWEST,3932420,3338,3935758,Experiment
27269,P22.edf,68,ChoseLeft,[2],2,3410,3108,3410,337,3347.54,FEWEST,3932420,3338,3935758,Experiment
27271,P22.edf,69,START_DRAWING,.,.,83,.,.,2,2252.245,FEWEST,3939703,2232,3941935,Experiment
27516,P22.edf,69,Chose_Right,[3],3,2313,2066,2313,247,2252.245,FEWEST,3939703,2232,3941935,Experiment
27517,P22.edf,69,ChoseRight,[3],3,2313,2066,2313,248,2252.245,FEWEST,3939703,2232,3941935,Experiment
27519,P22.edf,70,START_DRAWING,.,.,73,71,76,2,2083.424,FEWEST,3948403,2075,3950478,Experiment
27751,P22.edf,70,Chose_Right,[3],3,2146,1622,2146,234,2083.424,FEWEST,3948403,2075,3950478,Experiment
27753,P22.edf,71,START_DRAWING,.,.,66,64,332,2,4155.502,FEWEST,3954336,4153,3958489,Experiment
28150,P22.edf,71,Chose_Right,[3],3,4217,3852,4217,399,4155.502,FEWEST,3954336,4153,3958489,Experiment
28151,P22.edf,71,ChoseRight,[3],3,4217,3852,4217,400,4155.502,FEWEST,3954336,4153,3958489,Experiment
28153,P22.edf,72,START_DRAWING,.,.,81,80,84,2,2550.939,FEWEST,3961770,2533,3964303,Experiment
28399,P22.edf,72,Chose_Left,[2],2,2613,2294,2613,248,2550.939,FEWEST,3961770,2533,3964303,Experiment
28400,P22.edf,72,ChoseLeft,[2],2,2613,2294,2613,249,2550.939,FEWEST,3961770,2533,3964303,Experiment
28402,P22.edf,73,START_DRAWING,.,.,71,69,146,2,5814.5509999999995,FEWEST,3968319,5807,3974126,Experiment
28906,P22.edf,73,Chose_Left,[3],3,5876,5704,5876,506,5814.5509999999995,FEWEST,3968319,5807,3974126,Experiment
28907,P22.edf,73,ChoseLeft,[3],3,5876,5704,5876,507,5814.5509999999995,FEWEST,3968319,5807,3974126,Experiment
28909,P22.edf,74,START_DRAWING,.,.,80,78,196,2,1428.2879999999998,FEWEST,3977552,1413,3978965,Experiment
29081,P22.edf,74,Chose_Left,[3],3,1491,784,1491,174,1428.2879999999998,FEWEST,3977552,1413,3978965,Experiment
29082,P22.edf,74,ChoseLeft,[3],3,1491,784,1491,175,1428.2879999999998,FEWEST,3977552,1413,3978965,Experiment
29084,P22.edf,75,START_DRAWING,.,.,78,.,.,2,1743.991,FEWEST,3984452,1729,3986181,Experiment
29251,P22.edf,75,Chose_Left,[2],2,1805,1474,1805,169,1743.991,FEWEST,3984452,1729,3986181,Experiment
29253,P22.edf,76,START_DRAWING,.,.,82,80,134,2,2329.644,FEWEST,3989252,2313,3991565,Experiment
29509,P22.edf,76,Chose_Right,[3],3,2393,2038,2393,258,2329.644,FEWEST,3989252,2313,3991565,Experiment
29510,P22.edf,76,ChoseRight,[3],3,2393,2038,2393,259,2329.644,FEWEST,3989252,2313,3991565,Experiment
29512,P22.edf,77,START_DRAWING,.,.,76,75,122,2,3381.75,FEWEST,3995669,3369,3999038,Experiment
29844,P22.edf,77,Chose_Right,[3],3,3444,3158,3444,334,3381.75,FEWEST,3995669,3369,3999038,Experiment
29845,P22.edf,77,ChoseRight,[3],3,3444,3158,3444,335,3381.75,FEWEST,3995669,3369,3999038,Experiment
29847,P22.edf,78,START_DRAWING,.,.,70,68,90,2,2209.993,FEWEST,4002368,2205,4004573,Experiment
30053,P22.edf,78,Chose_Left,[2],2,2273,2014,2273,208,2209.993,FEWEST,4002368,2205,4004573,Experiment
30054,P22.edf,78,ChoseLeft,[2],2,2273,2014,2273,209,2209.993,FEWEST,4002368,2205,4004573,Experiment
30056,P22.edf,79,START_DRAWING,.,.,67,65,238,2,3602.313,FEWEST,4007585,3596,4011181,Experiment
30481,P22.edf,79,Chose_Right,[3],3,3661,3472,3661,427,3602.313,FEWEST,4007585,3596,4011181,Experiment
30482,P22.edf,79,ChoseRight,[3],3,3661,3472,3661,428,3602.313,FEWEST,4007585,3596,4011181,Experiment
30484,P22.edf,80,START_DRAWING,.,.,77,74,78,2,2506.099,FEWEST,4014134,2495,4016629,Experiment
30733,P22.edf,80,Chose_Left,[2],2,2569,2322,2569,251,2506.099,FEWEST,4014134,2495,4016629,Experiment
30734,P22.edf,80,ChoseLeft,[2],2,2569,2322,2569,252,2506.099,FEWEST,4014134,2495,4016629,Experiment
30736,P22.edf,81,START_DRAWING,.,.,81,79,252,2,1734.2839999999999,MOST,4066467,1713,4068180,Experiment
30912,P22.edf,81,Chose_Right,[3],3,1792,1438,1792,178,1734.2839999999999,MOST,4066467,1713,4068180,Experiment
30913,P22.edf,81,ChoseRight,[3],3,1792,1438,1792,179,1734.2839999999999,MOST,4066467,1713,4068180,Experiment
30915,P22.edf,82,START_DRAWING,.,.,83,81,138,2,6555.37,MOST,4073483,6536,4080019,Experiment
31483,P22.edf,82,Chose_Left,[2],2,6617,6412,6617,570,6555.37,MOST,4073483,6536,4080019,Experiment
31484,P22.edf,82,ChoseLeft,[2],2,6617,6412,6617,571,6555.37,MOST,4073483,6536,4080019,Experiment
31486,P22.edf,83,START_DRAWING,.,.,81,.,.,2,3174.566,MOST,4084466,3161,4087627,Experiment
31841,P22.edf,83,Chose_Left,[2],2,3239,3076,3239,357,3174.566,MOST,4084466,3161,4087627,Experiment
31842,P22.edf,83,ChoseLeft,[2],2,3239,3076,3239,358,3174.566,MOST,4084466,3161,4087627,Experiment
31844,P22.edf,84,START_DRAWING,.,.,68,65,204,2,2877.579,MOST,4090899,2872,4093771,Experiment
32138,P22.edf,84,Chose_Right,[3],3,2937,2592,2937,296,2877.579,MOST,4090899,2872,4093771,Experiment
32139,P22.edf,84,ChoseRight,[3],3,2937,2592,2937,297,2877.579,MOST,4090899,2872,4093771,Experiment
32141,P22.edf,85,START_DRAWING,.,.,110,.,.,2,1806.31,MOST,4097050,1785,4098835,Experiment
32338,P22.edf,85,Chose_Right,[3],3,1893,1662,1893,199,1806.31,MOST,4097050,1785,4098835,Experiment
32340,P22.edf,86,START_DRAWING,.,.,81,79,148,2,3636.816,MOST,4101883,3617,4105500,Experiment
32729,P22.edf,86,Chose_Left,[2],2,3696,3360,3696,391,3636.816,MOST,4101883,3617,4105500,Experiment
32731,P22.edf,87,START_DRAWING,.,.,85,83,146,2,3650.2659999999996,MOST,4108883,3631,4112514,Experiment
33076,P22.edf,87,Chose_Right,[3],3,3714,3066,3714,347,3650.2659999999996,MOST,4108883,3631,4112514,Experiment
33078,P22.edf,88,START_DRAWING,.,.,70,68,310,2,3078.223,MOST,4115016,3067,4118083,Experiment
33412,P22.edf,88,Chose_Left,[2],2,3135,2746,3135,336,3078.223,MOST,4115016,3067,4118083,Experiment
33414,P22.edf,89,START_DRAWING,.,.,70,69,286,2,1259.268,MOST,4121983,1252,4123235,Experiment
33545,P22.edf,89,Chose_Right,[3],3,1321,1224,1321,133,1259.268,MOST,4121983,1252,4123235,Experiment
33546,P22.edf,89,ChoseRight,[3],3,1321,1224,1321,134,1259.268,MOST,4121983,1252,4123235,Experiment
33548,P22.edf,90,START_DRAWING,.,.,72,69,320,2,3440.738,MOST,4126265,3434,4129699,Experiment
33924,P22.edf,90,Chose_Left,[2],2,3503,3232,3503,378,3440.738,MOST,4126265,3434,4129699,Experiment
33926,P22.edf,91,START_DRAWING,.,.,73,71,266,2,5698.026999999999,MOST,4136215,5690,4141905,Experiment
34451,P22.edf,91,Chose_Right,[3],3,5761,5424,5761,527,5698.026999999999,MOST,4136215,5690,4141905,Experiment
34453,P22.edf,92,START_DRAWING,.,.,72,70,346,2,8224.466999999999,MOST,4145482,8217,4153699,Experiment
35290,P22.edf,92,Chose_Right,[3],3,8287,8082,8287,839,8224.466999999999,MOST,4145482,8217,4153699,Experiment
35291,P22.edf,92,ChoseRight,[3],3,8287,8082,8287,840,8224.466999999999,MOST,4145482,8217,4153699,Experiment
35293,P22.edf,93,START_DRAWING,.,.,69,67,216,2,2626.1679999999997,MOST,4157365,2621,4159986,Experiment
35544,P22.edf,93,Chose_Right,[3],3,2688,2662,2688,253,2626.1679999999997,MOST,4157365,2621,4159986,Experiment
35546,P22.edf,94,START_DRAWING,[2],2,80,.,.,2,1991.4129999999998,MOST,4165849,1976,4167825,Experiment
35736,P22.edf,94,Chose_Left,[2],2,2055,1904,2055,192,1991.4129999999998,MOST,4165849,1976,4167825,Experiment
35738,P22.edf,95,START_DRAWING,.,.,79,.,.,2,1671.149,MOST,4170464,1658,4172122,Experiment
35917,P22.edf,95,Chose_Right,[3],3,1734,1490,1734,181,1671.149,MOST,4170464,1658,4172122,Experiment
35918,P22.edf,95,ChoseRight,[3],3,1734,1490,1734,182,1671.149,MOST,4170464,1658,4172122,Experiment
35920,P22.edf,96,START_DRAWING,.,.,69,.,.,2,2607.607,MOST,4175014,2603,4177617,Experiment
36154,P22.edf,96,Chose_Left,[2],2,2669,2418,2669,236,2607.607,MOST,4175014,2603,4177617,Experiment
36156,P22.edf,97,START_DRAWING,.,.,76,74,248,2,1527.826,MOST,4181214,1515,4182729,Experiment
36324,P22.edf,97,Chose_Right,[3],3,1589,1342,1589,170,1527.826,MOST,4181214,1515,4182729,Experiment
36326,P22.edf,98,START_DRAWING,.,.,84,82,256,2,5043.16,MOST,4185614,5028,4190642,Experiment
36907,P22.edf,98,Chose_Left,[2],2,5110,4956,5110,583,5043.16,MOST,4185614,5028,4190642,Experiment
36908,P22.edf,98,ChoseLeft,[2],2,5110,4956,5110,584,5043.16,MOST,4185614,5028,4190642,Experiment
36910,P22.edf,99,START_DRAWING,.,.,71,70,354,2,2267.665,MOST,4193881,2257,4196138,Experiment
37137,P22.edf,99,TRACKER_TIME 18 4196100.165,[3],3,2288,1804,2326,229,2267.665,MOST,4193881,2257,4196138,Experiment
37144,P22.edf,99,Chose_Right,[3],3,2326,1804,2326,236,2267.665,MOST,4193881,2257,4196138,Experiment
37145,P22.edf,99,ChoseRight,[3],3,2326,1804,2326,237,2267.665,MOST,4193881,2257,4196138,Experiment
37147,P22.edf,100,START_DRAWING,.,.,81,80,136,2,4499.543,MOST,4199598,4483,4204081,Experiment
37612,P22.edf,100,Chose_Left,[2],2,4563,4268,4563,467,4499.543,MOST,4199598,4483,4204081,Experiment
37613,P22.edf,100,ChoseLeft,[2],2,4563,4268,4563,468,4499.543,MOST,4199598,4483,4204081,Experiment
37615,P22.edf,101,START_DRAWING,.,.,70,.,.,2,5571.061,MOST,4208080,5561,4213641,Experiment
38200,P22.edf,101,Chose_Left,[2],2,5629,5122,5629,587,5571.061,MOST,4208080,5561,4213641,Experiment
38201,P22.edf,101,ChoseLeft,[2],2,5629,5122,5629,588,5571.061,MOST,4208080,5561,4213641,Experiment
38203,P22.edf,102,START_DRAWING,.,.,86,84,218,2,2045.641,MOST,4216264,2025,4218289,Experiment
38394,P22.edf,102,Chose_Right,[3],3,2109,1558,2109,193,2045.641,MOST,4216264,2025,4218289,Experiment
38396,P22.edf,103,START_DRAWING,.,.,76,73,252,2,1402.112,MOST,4222513,1391,4223904,Experiment
38555,P22.edf,103,Chose_Right,[3],3,1464,862,1464,161,1402.112,MOST,4222513,1391,4223904,Experiment
38556,P22.edf,103,ChoseRight,[3],3,1464,862,1464,162,1402.112,MOST,4222513,1391,4223904,Experiment
38558,P22.edf,104,START_DRAWING,.,.,79,77,146,2,2736.625,MOST,4229797,2723,4232520,Experiment
38853,P22.edf,104,Chose_Right,[3],3,2800,2402,2800,297,2736.625,MOST,4229797,2723,4232520,Experiment
38854,P22.edf,104,ChoseRight,[3],3,2800,2402,2800,298,2736.625,MOST,4229797,2723,4232520,Experiment
38856,P22.edf,105,START_DRAWING,.,.,82,80,90,2,2065.604,MOST,4236480,2048,4238528,Experiment
39074,P22.edf,105,Chose_Right,[3],3,2128,1692,2128,220,2065.604,MOST,4236480,2048,4238528,Experiment
39075,P22.edf,105,ChoseRight,[3],3,2128,1692,2128,221,2065.604,MOST,4236480,2048,4238528,Experiment
39077,P22.edf,106,START_DRAWING,.,.,76,75,126,2,3058.203,MOST,4242747,3046,4245793,Experiment
39403,P22.edf,106,Chose_Right,[3],3,3121,3102,3121,328,3058.203,MOST,4242747,3046,4245793,Experiment
39404,P22.edf,106,ChoseRight,[3],3,3121,3102,3121,329,3058.203,MOST,4242747,3046,4245793,Experiment
39406,P22.edf,107,START_DRAWING,.,.,69,.,.,2,1613.454,MOST,4248863,1609,4250472,Experiment
39582,P22.edf,107,Chose_Right,[3],3,1676,1320,1676,178,1613.454,MOST,4248863,1609,4250472,Experiment
39583,P22.edf,107,ChoseRight,[3],3,1676,1320,1676,179,1613.454,MOST,4248863,1609,4250472,Experiment
39585,P22.edf,108,START_DRAWING,.,.,78,.,.,2,1931.4820000000002,MOST,4253547,1919,4255466,Experiment
39794,P22.edf,108,Chose_Right,[3],3,1996,1576,1996,211,1931.4820000000002,MOST,4253547,1919,4255466,Experiment
39795,P22.edf,108,ChoseRight,[3],3,1996,1576,1996,212,1931.4820000000002,MOST,4253547,1919,4255466,Experiment
39797,P22.edf,109,START_DRAWING,.,.,85,83,140,2,4895.517,MOST,4258213,4875,4263088,Experiment
40265,P22.edf,109,Chose_Left,[2],2,4958,4580,4958,470,4895.517,MOST,4258213,4875,4263088,Experiment
40267,P22.edf,110,START_DRAWING,.,.,73,.,.,2,3197.86,MOST,4265779,3189,4268968,Experiment
40602,P22.edf,110,Chose_Right,[3],3,3260,2860,3260,337,3197.86,MOST,4265779,3189,4268968,Experiment
40603,P22.edf,110,ChoseRight,[3],3,3260,2860,3260,338,3197.86,MOST,4265779,3189,4268968,Experiment
40605,P22.edf,111,START_DRAWING,.,.,74,72,148,2,2000.6879999999999,MOST,4271596,1988,4273584,Experiment
40818,P22.edf,111,Chose_Right,[3],3,2060,1610,2060,215,2000.6879999999999,MOST,4271596,1988,4273584,Experiment
40820,P22.edf,112,START_DRAWING,.,.,76,74,92,2,1921.251,MOST,4278596,1907,4280503,Experiment
41008,P22.edf,112,Chose_Right,[3],3,1981,1738,1981,190,1921.251,MOST,4278596,1907,4280503,Experiment
41009,P22.edf,112,ChoseRight,[3],3,1981,1738,1981,191,1921.251,MOST,4278596,1907,4280503,Experiment
41011,P22.edf,113,START_DRAWING,.,.,80,.,.,2,2050.4970000000003,MOST,4283595,2037,4285632,Experiment
41241,P22.edf,113,Chose_Right,[3],3,2114,1774,2114,232,2050.4970000000003,MOST,4283595,2037,4285632,Experiment
41242,P22.edf,113,ChoseRight,[3],3,2114,1774,2114,233,2050.4970000000003,MOST,4283595,2037,4285632,Experiment
41244,P22.edf,114,START_DRAWING,.,.,78,76,304,2,2219.756,MOST,4288346,2206,4290552,Experiment
41538,P22.edf,114,Chose_Right,[3],3,2282,1428,2282,296,2219.756,MOST,4288346,2206,4290552,Experiment
41539,P22.edf,114,ChoseRight,[3],3,2282,1428,2282,297,2219.756,MOST,4288346,2206,4290552,Experiment
41541,P22.edf,115,START_DRAWING,.,.,76,75,106,2,1635.473,MOST,4293113,1623,4294736,Experiment
41712,P22.edf,115,Chose_Right,[3],3,1698,1598,1698,173,1635.473,MOST,4293113,1623,4294736,Experiment
41713,P22.edf,115,ChoseRight,[3],3,1698,1598,1698,174,1635.473,MOST,4293113,1623,4294736,Experiment
41715,P22.edf,116,START_DRAWING,.,.,70,68,112,2,5608.432,MOST,4298462,5602,4304064,Experiment
42351,P22.edf,116,Chose_Left,[2],2,5670,5400,5670,638,5608.432,MOST,4298462,5602,4304064,Experiment
42353,P22.edf,117,START_DRAWING,.,.,65,63,258,2,4443.018,MOST,4307945,4438,4312383,Experiment
42841,P22.edf,117,Chose_Left,[2],2,4501,3998,4501,490,4443.018,MOST,4307945,4438,4312383,Experiment
42842,P22.edf,117,ChoseLeft,[2],2,4501,3998,4501,491,4443.018,MOST,4307945,4438,4312383,Experiment
42844,P22.edf,118,START_DRAWING,.,.,86,85,88,2,2620.927,MOST,4315079,2600,4317679,Experiment
42933,P22.edf,118,TRACKER_TIME 20 4316164.049,[3],3,1170,1040,1376,91,2620.927,MOST,4315079,2600,4317679,Experiment
43131,P22.edf,118,Chose_Right,[3],3,2685,2414,2685,289,2620.927,MOST,4315079,2600,4317679,Experiment
43132,P22.edf,118,ChoseRight,[3],3,2685,2414,2685,290,2620.927,MOST,4315079,2600,4317679,Experiment
43134,P22.edf,119,START_DRAWING,.,.,73,71,116,2,1725.9029999999998,MOST,4320361,1718,4322079,Experiment
43313,P22.edf,119,Chose_Right,[3],3,1789,1210,1789,181,1725.9029999999998,MOST,4320361,1718,4322079,Experiment
43315,P22.edf,120,START_DRAWING,.,.,66,64,96,2,3225.23,MOST,4325778,3220,4328998,Experiment
43662,P22.edf,120,Chose_Right,[3],3,3284,2826,3284,349,3225.23,MOST,4325778,3220,4328998,Experiment
43663,P22.edf,120,ChoseRight,[3],3,3284,2826,3284,350,3225.23,MOST,4325778,3220,4328998,Experiment
43665,P22.edf,121,START_DRAWING,.,.,73,70,342,2,7964.3009999999995,FEWEST,4387043,7953,4394996,Experiment
44508,P22.edf,121,Chose_Right,[3],3,8023,7582,8023,845,7964.3009999999995,FEWEST,4387043,7953,4394996,Experiment
44510,P22.edf,122,START_DRAWING,.,.,81,.,.,2,1743.8239999999998,FEWEST,4398710,1727,4400437,Experiment
44683,P22.edf,122,Chose_Left,[2],2,1806,1352,1806,175,1743.8239999999998,FEWEST,4398710,1727,4400437,Experiment
44684,P22.edf,122,ChoseLeft,[2],2,1806,1352,1806,176,1743.8239999999998,FEWEST,4398710,1727,4400437,Experiment
44686,P22.edf,123,START_DRAWING,[2],2,85,.,.,2,2122.334,FEWEST,4404343,2102,4406445,Experiment
44890,P22.edf,123,Chose_Left,[2],2,2184,1570,2184,206,2122.334,FEWEST,4404343,2102,4406445,Experiment
44892,P22.edf,124,START_DRAWING,.,.,77,.,.,2,2518.011,FEWEST,4409426,2507,4411933,Experiment
45136,P22.edf,124,Chose_Right,[2],2,2582,1972,2582,246,2518.011,FEWEST,4409426,2507,4411933,Experiment
45137,P22.edf,124,ChoseRight,[2],2,2582,1972,2582,247,2518.011,FEWEST,4409426,2507,4411933,Experiment
45139,P22.edf,125,START_DRAWING,.,.,72,69,144,2,2201.475,FEWEST,4416192,2197,4418389,Experiment
45376,P22.edf,125,Chose_Left,[2],2,2266,1788,2266,239,2201.475,FEWEST,4416192,2197,4418389,Experiment
45378,P22.edf,126,START_DRAWING,.,.,82,80,82,2,2131.478,FEWEST,4422209,2115,4424324,Experiment
45596,P22.edf,126,Chose_Left,[2],2,2195,2048,2195,220,2131.478,FEWEST,4422209,2115,4424324,Experiment
45597,P22.edf,126,ChoseLeft,[2],2,2195,2048,2195,221,2131.478,FEWEST,4422209,2115,4424324,Experiment
45599,P22.edf,127,START_DRAWING,.,.,72,70,238,2,2017.4289999999999,FEWEST,4426809,2011,4428820,Experiment
45793,P22.edf,127,Chose_Left,[2],2,2081,1800,2081,196,2017.4289999999999,FEWEST,4426809,2011,4428820,Experiment
45794,P22.edf,127,ChoseLeft,[2],2,2081,1800,2081,197,2017.4289999999999,FEWEST,4426809,2011,4428820,Experiment
45797,P22.edf,128,START_DRAWING,.,.,84,84,210,3,3241.381,FEWEST,4432692,3224,4435916,Experiment
46193,P22.edf,128,Chose_Right,[3],3,3305,3114,3305,399,3241.381,FEWEST,4432692,3224,4435916,Experiment
46194,P22.edf,128,ChoseRight,[3],3,3305,3114,3305,400,3241.381,FEWEST,4432692,3224,4435916,Experiment
46196,P22.edf,129,START_DRAWING,[2],2,70,.,.,2,2528.386,FEWEST,4439892,2520,4442412,Experiment
46433,P22.edf,129,Chose_Left,[2],2,2587,2216,2587,239,2528.386,FEWEST,4439892,2520,4442412,Experiment
46434,P22.edf,129,ChoseLeft,[2],2,2587,2216,2587,240,2528.386,FEWEST,4439892,2520,4442412,Experiment
46436,P22.edf,130,START_DRAWING,.,.,84,82,216,2,1679.8729999999998,FEWEST,4446893,1662,4448555,Experiment
46440,P22.edf,130,TRACKER_TIME 22 4446927.815,.,.,117,82,216,6,1679.8729999999998,FEWEST,4446893,1662,4448555,Experiment
46630,P22.edf,130,Chose_Right,[3],3,1744,1370,1744,196,1679.8729999999998,FEWEST,4446893,1662,4448555,Experiment
46631,P22.edf,130,ChoseRight,[3],3,1744,1370,1744,197,1679.8729999999998,FEWEST,4446893,1662,4448555,Experiment
46633,P22.edf,131,START_DRAWING,.,.,81,.,.,2,1513.221,FEWEST,4451292,1496,4452788,Experiment
46782,P22.edf,131,Chose_Left,[2],2,1575,1328,1575,151,1513.221,FEWEST,4451292,1496,4452788,Experiment
46784,P22.edf,132,START_DRAWING,.,.,67,.,.,2,3359.407,FEWEST,4456242,3354,4459596,Experiment
47199,P22.edf,132,Chose_Right,[3],3,3419,2824,3419,417,3359.407,FEWEST,4456242,3354,4459596,Experiment
47201,P22.edf,133,START_DRAWING,.,.,72,70,288,2,3815.203,FEWEST,4462659,3808,4466467,Experiment
47619,P22.edf,133,Chose_Left,[2],2,3878,3630,3878,420,3815.203,FEWEST,4462659,3808,4466467,Experiment
47620,P22.edf,133,ChoseLeft,[2],2,3878,3630,3878,421,3815.203,FEWEST,4462659,3808,4466467,Experiment
47622,P22.edf,134,START_DRAWING,.,.,68,.,.,2,4747.633,FEWEST,4469525,4742,4474267,Experiment
48208,P22.edf,134,Chose_Left,[2],2,4808,4534,4808,588,4747.633,FEWEST,4469525,4742,4474267,Experiment
48209,P22.edf,134,ChoseLeft,[2],2,4808,4534,4808,589,4747.633,FEWEST,4469525,4742,4474267,Experiment
48211,P22.edf,135,START_DRAWING,.,.,80,78,256,2,3013.6240000000003,FEWEST,4477225,2994,4480219,Experiment
48562,P22.edf,135,Chose_Left,[3],3,3072,2898,3072,353,3013.6240000000003,FEWEST,4477225,2994,4480219,Experiment
48563,P22.edf,135,ChoseLeft,[3],3,3072,2898,3072,354,3013.6240000000003,FEWEST,4477225,2994,4480219,Experiment
48565,P22.edf,136,START_DRAWING,.,.,76,.,.,2,3695.847,FEWEST,4484191,3684,4487875,Experiment
48956,P22.edf,136,Chose_Left,[3],3,3758,3314,3758,393,3695.847,FEWEST,4484191,3684,4487875,Experiment
48958,P22.edf,137,START_DRAWING,.,.,72,70,110,2,1818.684,FEWEST,4492291,1809,4494100,Experiment
49138,P22.edf,137,Chose_Left,[2],2,1879,1838,1879,182,1818.684,FEWEST,4492291,1809,4494100,Experiment
49139,P22.edf,137,ChoseLeft,[2],2,1879,1838,1879,183,1818.684,FEWEST,4492291,1809,4494100,Experiment
49141,P22.edf,138,START_DRAWING,.,.,79,77,114,2,3040.837,FEWEST,4497608,3027,4500635,Experiment
49406,P22.edf,138,Chose_Left,[2],2,3104,2930,3104,267,3040.837,FEWEST,4497608,3027,4500635,Experiment
49407,P22.edf,138,ChoseLeft,[2],2,3104,2930,3104,268,3040.837,FEWEST,4497608,3027,4500635,Experiment
49409,P22.edf,139,START_DRAWING,.,.,75,74,138,2,3156.8070000000002,FEWEST,4503625,3146,4506771,Experiment
49679,P22.edf,139,Chose_Left,[2],2,3220,2932,3220,272,3156.8070000000002,FEWEST,4503625,3146,4506771,Experiment
49680,P22.edf,139,ChoseLeft,[2],2,3220,2932,3220,273,3156.8070000000002,FEWEST,4503625,3146,4506771,Experiment
49682,P22.edf,140,START_DRAWING,.,.,78,76,280,2,5926.643,FEWEST,4509457,5913,4515370,Experiment
50246,P22.edf,140,Chose_Right,[3],3,5989,5452,5989,566,5926.643,FEWEST,4509457,5913,4515370,Experiment
50248,P22.edf,141,START_DRAWING,[2],2,86,81,242,2,4156.099,FEWEST,4518890,4137,4523027,Experiment
50789,P22.edf,141,Chose_Right,[3],3,4218,3762,4218,543,4156.099,FEWEST,4518890,4137,4523027,Experiment
50790,P22.edf,141,ChoseRight,[3],3,4218,3762,4218,544,4156.099,FEWEST,4518890,4137,4523027,Experiment
50792,P22.edf,142,START_DRAWING,.,.,70,68,100,2,2333.893,FEWEST,4526707,2327,4529034,Experiment
51045,P22.edf,142,Chose_Right,[2],2,2395,1788,2395,255,2333.893,FEWEST,4526707,2327,4529034,Experiment
51047,P22.edf,143,START_DRAWING,.,.,82,80,124,2,2362.993,FEWEST,4533207,2346,4535553,Experiment
51315,P22.edf,143,Chose_Left,[3],3,2426,2160,2426,270,2362.993,FEWEST,4533207,2346,4535553,Experiment
51317,P22.edf,144,START_DRAWING,.,.,76,74,230,2,1705.088,FEWEST,4538707,1694,4540401,Experiment
51496,P22.edf,144,Chose_Left,[3],3,1768,1140,1768,181,1705.088,FEWEST,4538707,1694,4540401,Experiment
51498,P22.edf,145,START_DRAWING,[2],2,75,.,.,2,1720.385,FEWEST,4543924,1711,4545635,Experiment
51681,P22.edf,145,Chose_Right,[2],2,1784,1230,1784,185,1720.385,FEWEST,4543924,1711,4545635,Experiment
51682,P22.edf,145,ChoseRight,[2],2,1784,1230,1784,186,1720.385,FEWEST,4543924,1711,4545635,Experiment
51684,P22.edf,146,START_DRAWING,.,.,71,69,296,2,1728.2179999999998,FEWEST,4548840,1721,4550561,Experiment
51869,P22.edf,146,Chose_Left,[2],2,1790,1586,1790,187,1728.2179999999998,FEWEST,4548840,1721,4550561,Experiment
51871,P22.edf,147,START_DRAWING,.,.,73,.,.,2,2498.348,FEWEST,4553440,2490,4555930,Experiment
52150,P22.edf,147,Chose_Right,[3],3,2561,2418,2561,281,2498.348,FEWEST,4553440,2490,4555930,Experiment
52151,P22.edf,147,ChoseRight,[3],3,2561,2418,2561,282,2498.348,FEWEST,4553440,2490,4555930,Experiment
52153,P22.edf,148,START_DRAWING,.,.,73,71,222,2,3240.4590000000003,FEWEST,4558890,3231,4562121,Experiment
52552,P22.edf,148,Chose_Right,[3],3,3302,3236,3302,401,3240.4590000000003,FEWEST,4558890,3231,4562121,Experiment
52554,P22.edf,149,START_DRAWING,.,.,83,81,262,2,2765.97,FEWEST,4565240,2746,4567986,Experiment
52745,P22.edf,149,TRACKER_TIME 24 4566991.787,[2],2,1833,1790,2334,193,2765.97,FEWEST,4565240,2746,4567986,Experiment
52855,P22.edf,149,Chose_Right,[3],3,2827,2752,2827,303,2765.97,FEWEST,4565240,2746,4567986,Experiment
52856,P22.edf,149,ChoseRight,[3],3,2827,2752,2827,304,2765.97,FEWEST,4565240,2746,4567986,Experiment
52858,P22.edf,150,START_DRAWING,.,.,75,72,260,2,2998.353,FEWEST,4571439,2987,4574426,Experiment
53173,P22.edf,150,Chose_Right,[3],3,3059,2706,3059,317,2998.353,FEWEST,4571439,2987,4574426,Experiment
53174,P22.edf,150,ChoseRight,[3],3,3059,2706,3059,318,2998.353,FEWEST,4571439,2987,4574426,Experiment
53176,P22.edf,151,START_DRAWING,.,.,69,67,68,2,2079.715,FEWEST,4577206,2075,4579281,Experiment
53390,P22.edf,151,Chose_Left,[2],2,2142,1686,2142,216,2079.715,FEWEST,4577206,2075,4579281,Experiment
53391,P22.edf,151,ChoseLeft,[2],2,2142,1686,2142,217,2079.715,FEWEST,4577206,2075,4579281,Experiment
53393,P22.edf,152,START_DRAWING,.,.,80,78,138,2,1666.1029999999998,FEWEST,4582539,1646,4584185,Experiment
53565,P22.edf,152,Chose_Right,[2],2,1724,1352,1724,174,1666.1029999999998,FEWEST,4582539,1646,4584185,Experiment
53567,P22.edf,153,START_DRAWING,.,.,82,79,82,2,2426.928,FEWEST,4587472,2409,4589881,Experiment
53783,P22.edf,153,Chose_Left,[2],2,2488,1998,2488,218,2426.928,FEWEST,4587472,2409,4589881,Experiment
53785,P22.edf,154,START_DRAWING,.,.,77,75,250,2,3263.2990000000004,FEWEST,4592206,3253,4595459,Experiment
54106,P22.edf,154,Chose_Right,[3],3,3328,2950,3328,323,3263.2990000000004,FEWEST,4592206,3253,4595459,Experiment
54107,P22.edf,154,ChoseRight,[3],3,3328,2950,3328,324,3263.2990000000004,FEWEST,4592206,3253,4595459,Experiment
54109,P22.edf,155,START_DRAWING,.,.,80,78,438,2,1723.836,FEWEST,4598739,1709,4600448,Experiment
54289,P22.edf,155,Chose_Left,[3],3,1787,1176,1787,182,1723.836,FEWEST,4598739,1709,4600448,Experiment
54290,P22.edf,155,ChoseLeft,[3],3,1787,1176,1787,183,1723.836,FEWEST,4598739,1709,4600448,Experiment
54292,P22.edf,156,START_DRAWING,.,.,78,76,224,2,1368.6429999999998,FEWEST,4603139,1357,4604496,Experiment
54449,P22.edf,156,Chose_Left,[3],3,1433,1106,1433,159,1368.6429999999998,FEWEST,4603139,1357,4604496,Experiment
54450,P22.edf,156,ChoseLeft,[3],3,1433,1106,1433,160,1368.6429999999998,FEWEST,4603139,1357,4604496,Experiment
54452,P22.edf,157,START_DRAWING,.,.,79,.,.,2,1990.443,FEWEST,4607273,1976,4609249,Experiment
54658,P22.edf,157,Chose_Left,[2],2,2054,1818,2054,208,1990.443,FEWEST,4607273,1976,4609249,Experiment
54660,P22.edf,158,START_DRAWING,.,.,70,.,.,2,2997.1259999999997,FEWEST,4612788,2989,4615777,Experiment
54989,P22.edf,158,Chose_Left,[3],3,3056,2682,3056,331,2997.1259999999997,FEWEST,4612788,2989,4615777,Experiment
54990,P22.edf,158,ChoseLeft,[3],3,3056,2682,3056,332,2997.1259999999997,FEWEST,4612788,2989,4615777,Experiment
54992,P22.edf,159,START_DRAWING,.,.,76,73,266,2,1573.53,FEWEST,4618388,1557,4619945,Experiment
55163,P22.edf,159,Chose_Left,[3],3,1630,1298,1630,173,1573.53,FEWEST,4618388,1557,4619945,Experiment
55164,P22.edf,159,ChoseLeft,[3],3,1630,1298,1630,174,1573.53,FEWEST,4618388,1557,4619945,Experiment
55166,P22.edf,160,START_DRAWING,.,.,67,.,.,2,2306.153,FEWEST,4623388,2301,4625689,Experiment
55404,P22.edf,160,Chose_Left,[2],2,2366,2238,2366,240,2306.153,FEWEST,4623388,2301,4625689,Experiment
55405,P22.edf,160,ChoseLeft,[2],2,2366,2238,2366,241,2306.153,FEWEST,4623388,2301,4625689,Experiment
55407,P22.edf,161,START_DRAWING,.,.,69,67,120,2,1686.53,MOST,4802668,1680,4804348,Experiment
55575,P22.edf,161,Chose_Left,[2],2,1747,1344,1747,170,1686.53,MOST,4802668,1680,4804348,Experiment
55576,P22.edf,161,ChoseLeft,[2],2,1747,1344,1747,171,1686.53,MOST,4802668,1680,4804348,Experiment
55579,P22.edf,162,START_DRAWING,[2],2,72,.,.,3,2010.5320000000002,MOST,4807234,2004,4809238,Experiment
55802,P22.edf,162,Chose_Right,[3],3,2073,1840,2073,226,2010.5320000000002,MOST,4807234,2004,4809238,Experiment
55803,P22.edf,162,ChoseRight,[3],3,2073,1840,2073,227,2010.5320000000002,MOST,4807234,2004,4809238,Experiment
55805,P22.edf,163,START_DRAWING,.,.,77,76,92,2,2244.929,MOST,4812035,2233,4814268,Experiment
56019,P22.edf,163,Chose_Left,[2],2,2309,2018,2309,216,2244.929,MOST,4812035,2233,4814268,Experiment
56020,P22.edf,163,ChoseLeft,[2],2,2309,2018,2309,217,2244.929,MOST,4812035,2233,4814268,Experiment
56022,P22.edf,164,START_DRAWING,[2],2,82,80,286,2,2092.94,MOST,4817035,2073,4819108,Experiment
56233,P22.edf,164,Chose_Left,[2],2,2153,2000,2153,213,2092.94,MOST,4817035,2073,4819108,Experiment
56234,P22.edf,164,ChoseLeft,[2],2,2153,2000,2153,214,2092.94,MOST,4817035,2073,4819108,Experiment
56236,P22.edf,165,START_DRAWING,.,.,73,71,92,2,1361.319,MOST,4822584,1349,4823933,Experiment
56390,P22.edf,165,Chose_Right,[3],3,1420,1222,1420,156,1361.319,MOST,4822584,1349,4823933,Experiment
56391,P22.edf,165,ChoseRight,[3],3,1420,1222,1420,157,1361.319,MOST,4822584,1349,4823933,Experiment
56393,P22.edf,166,START_DRAWING,.,.,78,76,150,2,1596.589,MOST,4826751,1581,4828332,Experiment
56577,P22.edf,166,Chose_Right,[3],3,1657,1232,1657,186,1596.589,MOST,4826751,1581,4828332,Experiment
56579,P22.edf,167,START_DRAWING,.,.,72,70,312,2,2850.1209999999996,MOST,4830717,2839,4833556,Experiment
56843,P22.edf,167,Chose_Left,[2],2,2909,2664,2909,266,2850.1209999999996,MOST,4830717,2839,4833556,Experiment
56844,P22.edf,167,ChoseLeft,[2],2,2909,2664,2909,267,2850.1209999999996,MOST,4830717,2839,4833556,Experiment
56846,P22.edf,168,START_DRAWING,.,.,73,71,206,2,1380.8970000000002,MOST,4837584,1371,4838955,Experiment
56996,P22.edf,168,Chose_Right,[3],3,1442,1226,1442,152,1380.8970000000002,MOST,4837584,1371,4838955,Experiment
56998,P22.edf,169,START_DRAWING,.,.,84,82,128,2,1391.672,MOST,4841767,1372,4843139,Experiment
57160,P22.edf,169,Chose_Right,[3],3,1454,830,1454,164,1391.672,MOST,4841767,1372,4843139,Experiment
57161,P22.edf,169,ChoseRight,[3],3,1454,830,1454,165,1391.672,MOST,4841767,1372,4843139,Experiment
57163,P22.edf,170,START_DRAWING,.,.,72,70,156,2,2101.903,MOST,4846517,2094,4848611,Experiment
57372,P22.edf,170,Chose_Left,[2],2,2164,2146,2164,211,2101.903,MOST,4846517,2094,4848611,Experiment
57373,P22.edf,170,ChoseLeft,[2],2,2164,2146,2164,212,2101.903,MOST,4846517,2094,4848611,Experiment
57375,P22.edf,171,START_DRAWING,[2],2,86,83,234,2,1582.34,MOST,4851600,1563,4853163,Experiment
57542,P22.edf,171,Chose_Right,[3],3,1646,1384,1646,169,1582.34,MOST,4851600,1563,4853163,Experiment
57544,P22.edf,172,START_DRAWING,.,.,76,74,246,2,2320.312,MOST,4857317,2310,4859627,Experiment
57756,P22.edf,172,Chose_Left,[2],2,2384,2292,2384,214,2320.312,MOST,4857317,2310,4859627,Experiment
57758,P22.edf,173,START_DRAWING,[2],2,77,.,.,2,2184.782,MOST,4863334,2173,4865507,Experiment
57995,P22.edf,173,Chose_Left,[2],2,2248,1732,2248,239,2184.782,MOST,4863334,2173,4865507,Experiment
57996,P22.edf,173,ChoseLeft,[2],2,2248,1732,2248,240,2184.782,MOST,4863334,2173,4865507,Experiment
57998,P22.edf,174,START_DRAWING,.,.,71,69,72,2,2602.6839999999997,MOST,4868950,2596,4871546,Experiment
58273,P22.edf,174,Chose_Left,[2],2,2665,2396,2665,277,2602.6839999999997,MOST,4868950,2596,4871546,Experiment
58275,P22.edf,175,START_DRAWING,.,.,73,.,.,2,2890.742,MOST,4874349,2878,4877227,Experiment
58538,P22.edf,175,TRACKER_TIME 28 4876901.548,.,.,2622,.,.,265,2890.742,MOST,4874349,2878,4877227,Experiment
58592,P22.edf,175,Chose_Right,[3],3,2948,2676,2948,319,2890.742,MOST,4874349,2878,4877227,Experiment
58595,P22.edf,176,START_DRAWING,[2],2,81,.,.,3,1954.547,MOST,4880833,1938,4882771,Experiment
58788,P22.edf,176,Chose_Right,[3],3,2016,1712,2016,196,1954.547,MOST,4880833,1938,4882771,Experiment
58789,P22.edf,176,ChoseRight,[3],3,2016,1712,2016,197,1954.547,MOST,4880833,1938,4882771,Experiment
58791,P22.edf,177,START_DRAWING,[2],2,83,.,.,2,1901.984,MOST,4886000,1883,4887883,Experiment
59026,P22.edf,177,Chose_Right,[3],3,1964,1726,1964,237,1901.984,MOST,4886000,1883,4887883,Experiment
59028,P22.edf,178,START_DRAWING,.,.,77,.,.,2,3133.506,MOST,4891450,3121,4894571,Experiment
59357,P22.edf,178,Chose_Right,[3],3,3196,3112,3196,331,3133.506,MOST,4891450,3121,4894571,Experiment
59358,P22.edf,178,ChoseRight,[3],3,3196,3112,3196,332,3133.506,MOST,4891450,3121,4894571,Experiment
59360,P22.edf,179,START_DRAWING,.,.,82,80,152,2,2545.4179999999997,MOST,4896833,2530,4899363,Experiment
59627,P22.edf,179,Chose_Right,[3],3,2610,2610,2610,269,2545.4179999999997,MOST,4896833,2530,4899363,Experiment
59628,P22.edf,179,ChoseRight,[3],3,2610,2610,2610,270,2545.4179999999997,MOST,4896833,2530,4899363,Experiment
59630,P22.edf,180,START_DRAWING,[2],2,78,76,218,2,2023.4679999999998,MOST,4903183,2010,4905193,Experiment
59828,P22.edf,180,Chose_Left,[2],2,2086,1686,2086,200,2023.4679999999998,MOST,4903183,2010,4905193,Experiment
59830,P22.edf,181,START_DRAWING,.,.,87,85,102,2,3330.755,MOST,4907916,3311,4911227,Experiment
60182,P22.edf,181,Chose_Right,[3],3,3396,3282,3396,354,3330.755,MOST,4907916,3311,4911227,Experiment
60183,P22.edf,181,ChoseRight,[3],3,3396,3282,3396,355,3330.755,MOST,4907916,3311,4911227,Experiment
60185,P22.edf,182,START_DRAWING,.,.,73,71,80,2,1866.57,MOST,4914266,1856,4916122,Experiment
60384,P22.edf,182,Chose_Left,[2],2,1927,1792,1927,201,1866.57,MOST,4914266,1856,4916122,Experiment
60387,P22.edf,183,START_DRAWING,[2],2,76,73,226,3,1604.858,MOST,4920082,1593,4921675,Experiment
60567,P22.edf,183,Chose_Right,[3],3,1666,1596,1666,183,1604.858,MOST,4920082,1593,4921675,Experiment
60568,P22.edf,183,ChoseRight,[3],3,1666,1596,1666,184,1604.858,MOST,4920082,1593,4921675,Experiment
60570,P22.edf,184,START_DRAWING,.,.,76,.,.,2,2458.127,MOST,4924565,2445,4927010,Experiment
60824,P22.edf,184,Chose_Right,[3],3,2519,2290,2519,256,2458.127,MOST,4924565,2445,4927010,Experiment
60825,P22.edf,184,ChoseRight,[3],3,2519,2290,2519,257,2458.127,MOST,4924565,2445,4927010,Experiment
60827,P22.edf,185,START_DRAWING,.,.,80,78,126,2,4970.6359999999995,MOST,4930165,4957,4935122,Experiment
61344,P22.edf,185,Chose_Left,[2],2,5035,4872,5035,519,4970.6359999999995,MOST,4930165,4957,4935122,Experiment
61345,P22.edf,185,ChoseLeft,[2],2,5035,4872,5035,520,4970.6359999999995,MOST,4930165,4957,4935122,Experiment
61347,P22.edf,186,START_DRAWING,.,.,71,68,110,2,3115.157,MOST,4939081,3112,4942193,Experiment
61621,P22.edf,186,Chose_Left,[2],2,3180,2986,3180,276,3115.157,MOST,4939081,3112,4942193,Experiment
61622,P22.edf,186,ChoseLeft,[2],2,3180,2986,3180,277,3115.157,MOST,4939081,3112,4942193,Experiment
61624,P22.edf,187,START_DRAWING,.,.,71,.,.,2,3128.098,MOST,4944849,3121,4947970,Experiment
61917,P22.edf,187,Chose_Left,[2],2,3191,2996,3191,295,3128.098,MOST,4944849,3121,4947970,Experiment
61918,P22.edf,187,ChoseLeft,[2],2,3191,2996,3191,296,3128.098,MOST,4944849,3121,4947970,Experiment
61921,P22.edf,188,START_DRAWING,[2],2,77,.,.,3,3745.136,MOST,4951165,3731,4954896,Experiment
62255,P22.edf,188,Chose_Left,[2],2,3805,3736,3805,337,3745.136,MOST,4951165,3731,4954896,Experiment
62258,P22.edf,189,START_DRAWING,[2],2,71,.,.,3,3673.3520000000003,MOST,4958181,3667,4961848,Experiment
62645,P22.edf,189,Chose_Right,[3],3,3735,3398,3735,390,3673.3520000000003,MOST,4958181,3667,4961848,Experiment
62648,P22.edf,190,START_DRAWING,[2],2,76,.,.,3,4942.765,MOST,4965715,4936,4970651,Experiment
63095,P22.edf,190,Chose_Right,[3],3,5010,4792,5010,450,4942.765,MOST,4965715,4936,4970651,Experiment
63096,P22.edf,190,ChoseRight,[3],3,5010,4792,5010,451,4942.765,MOST,4965715,4936,4970651,Experiment
63098,P22.edf,191,START_DRAWING,[2],2,75,73,226,2,2224.593,MOST,4974848,2208,4977056,Experiment
63313,P22.edf,191,Chose_Left,[2],2,2281,2082,2281,217,2224.593,MOST,4974848,2208,4977056,Experiment
63315,P22.edf,192,START_DRAWING,.,.,69,.,.,2,2997.098,MOST,4980064,2993,4983057,Experiment
63630,P22.edf,192,Chose_Right,[2],2,3060,2970,3060,317,2997.098,MOST,4980064,2993,4983057,Experiment
63631,P22.edf,192,ChoseRight,[2],2,3060,2970,3060,318,2997.098,MOST,4980064,2993,4983057,Experiment
63634,P22.edf,193,START_DRAWING,[2],2,81,78,240,3,1391.7379999999998,MOST,4986947,1374,4988321,Experiment
63787,P22.edf,193,Chose_Right,[3],3,1452,1220,1452,156,1391.7379999999998,MOST,4986947,1374,4988321,Experiment
63788,P22.edf,193,ChoseRight,[3],3,1452,1220,1452,157,1391.7379999999998,MOST,4986947,1374,4988321,Experiment
63790,P22.edf,194,START_DRAWING,.,.,84,82,322,2,3340.985,MOST,4990981,3323,4994304,Experiment
64099,P22.edf,194,Chose_Left,[2],2,3405,2976,3405,311,3340.985,MOST,4990981,3323,4994304,Experiment
64100,P22.edf,194,ChoseLeft,[2],2,3405,2976,3405,312,3340.985,MOST,4990981,3323,4994304,Experiment
64103,P22.edf,195,START_DRAWING,[2],2,83,80,230,3,1648.785,MOST,4997097,1632,4998729,Experiment
64121,P22.edf,195,TRACKER_TIME 30 4997382.937,[2],2,366,284,614,21,1648.785,MOST,4997097,1632,4998729,Experiment
64268,P22.edf,195,Chose_Right,[3],3,1712,1650,1712,168,1648.785,MOST,4997097,1632,4998729,Experiment
64269,P22.edf,195,ChoseRight,[3],3,1712,1650,1712,169,1648.785,MOST,4997097,1632,4998729,Experiment
64272,P22.edf,196,START_DRAWING,[2],2,83,80,222,3,1990.089,MOST,5001113,1974,5003087,Experiment
64467,P22.edf,196,Chose_Left,[2],2,2054,2008,2054,198,1990.089,MOST,5001113,1974,5003087,Experiment
64469,P22.edf,197,START_DRAWING,[2],2,80,78,226,2,2490.532,MOST,5006981,2475,5009456,Experiment
64754,P22.edf,197,Chose_Right,[3],3,2553,2536,2553,287,2490.532,MOST,5006981,2475,5009456,Experiment
64755,P22.edf,197,ChoseRight,[3],3,2553,2536,2553,288,2490.532,MOST,5006981,2475,5009456,Experiment
64757,P22.edf,198,START_DRAWING,.,.,85,82,216,2,2508.0170000000003,MOST,5011897,2488,5014385,Experiment
64999,P22.edf,198,Chose_Left,[2],2,2570,2198,2570,244,2508.0170000000003,MOST,5011897,2488,5014385,Experiment
65000,P22.edf,198,ChoseLeft,[2],2,2570,2198,2570,245,2508.0170000000003,MOST,5011897,2488,5014385,Experiment
65002,P22.edf,199,START_DRAWING,[2],2,84,.,.,2,2293.524,MOST,5017831,2272,5020103,Experiment
65245,P22.edf,199,Chose_Right,[3],3,2354,2212,2354,245,2293.524,MOST,5017831,2272,5020103,Experiment
65247,P22.edf,200,START_DRAWING,.,.,74,72,118,2,3004.8179999999998,MOST,5024013,2994,5027007,Experiment
65524,P22.edf,200,Chose_Right,[3],3,3066,2900,3066,279,3004.8179999999998,MOST,5024013,2994,5027007,Experiment
65526,P22.edf,201,START_DRAWING,.,.,70,.,.,2,2773.406,FEWEST,5068479,2767,5071246,Experiment
65842,P22.edf,201,Chose_Left,[2],2,2835,2592,2835,318,2773.406,FEWEST,5068479,2767,5071246,Experiment
65843,P22.edf,201,ChoseLeft,[2],2,2835,2592,2835,319,2773.406,FEWEST,5068479,2767,5071246,Experiment
65845,P22.edf,202,START_DRAWING,.,.,75,72,88,2,2122.486,FEWEST,5074195,2107,5076302,Experiment
66125,P22.edf,202,Chose_Right,[3],3,2179,1328,2179,282,2122.486,FEWEST,5074195,2107,5076302,Experiment
66126,P22.edf,202,ChoseRight,[3],3,2179,1328,2179,283,2122.486,FEWEST,5074195,2107,5076302,Experiment
66129,P22.edf,203,START_DRAWING,[2],2,80,80,242,3,1541.2910000000002,FEWEST,5078862,1528,5080390,Experiment
66281,P22.edf,203,Chose_Left,[2],2,1605,1350,1605,155,1541.2910000000002,FEWEST,5078862,1528,5080390,Experiment
66282,P22.edf,203,ChoseLeft,[2],2,1605,1350,1605,156,1541.2910000000002,FEWEST,5078862,1528,5080390,Experiment
66284,P22.edf,204,START_DRAWING,.,.,69,66,210,2,1792.184,FEWEST,5082745,1789,5084534,Experiment
66467,P22.edf,204,Chose_Left,[2],2,1855,1514,1855,185,1792.184,FEWEST,5082745,1789,5084534,Experiment
66468,P22.edf,204,ChoseLeft,[2],2,1855,1514,1855,186,1792.184,FEWEST,5082745,1789,5084534,Experiment
66471,P22.edf,205,START_DRAWING,[2],2,69,66,196,3,1719.1229999999998,FEWEST,5087245,1713,5088958,Experiment
66640,P22.edf,205,Chose_Left,[2],2,1779,1674,1779,172,1719.1229999999998,FEWEST,5087245,1713,5088958,Experiment
66642,P22.edf,206,START_DRAWING,.,.,84,82,108,2,5485.479,FEWEST,5093179,5467,5098646,Experiment
67264,P22.edf,206,Chose_Right,[3],3,5549,5518,5549,624,5485.479,FEWEST,5093179,5467,5098646,Experiment
67266,P22.edf,207,START_DRAWING,.,.,78,76,78,2,4941.353,FEWEST,5105095,4927,5110022,Experiment
67791,P22.edf,207,Chose_Right,[3],3,5003,4794,5003,527,4941.353,FEWEST,5105095,4927,5110022,Experiment
67794,P22.edf,208,START_DRAWING,[2],2,73,.,.,3,1580.2060000000001,FEWEST,5113611,1572,5115183,Experiment
67973,P22.edf,208,Chose_Right,[2],2,1642,1364,1642,182,1580.2060000000001,FEWEST,5113611,1572,5115183,Experiment
67974,P22.edf,208,ChoseRight,[2],2,1642,1364,1642,183,1580.2060000000001,FEWEST,5113611,1572,5115183,Experiment
67977,P22.edf,209,START_DRAWING,[2],2,71,68,224,3,3148.962,FEWEST,5121711,3142,5124853,Experiment
68336,P22.edf,209,Chose_Left,[3],3,3210,2564,3210,362,3148.962,FEWEST,5121711,3142,5124853,Experiment
68339,P22.edf,210,START_DRAWING,[2],2,73,70,220,3,2129.2,FEWEST,5128211,2122,5130333,Experiment
68569,P22.edf,210,Chose_Right,[3],3,2192,1950,2192,233,2129.2,FEWEST,5128211,2122,5130333,Experiment
68570,P22.edf,210,ChoseRight,[3],3,2192,1950,2192,234,2129.2,FEWEST,5128211,2122,5130333,Experiment
68572,P22.edf,211,START_DRAWING,.,.,71,69,124,2,1528.68,FEWEST,5132878,1519,5134397,Experiment
68735,P22.edf,211,Chose_Left,[2],2,1588,1350,1588,165,1528.68,FEWEST,5132878,1519,5134397,Experiment
68736,P22.edf,211,ChoseLeft,[2],2,1588,1350,1588,166,1528.68,FEWEST,5132878,1519,5134397,Experiment
68738,P22.edf,212,START_DRAWING,.,.,84,82,238,2,1442.214,FEWEST,5137661,1423,5139084,Experiment
68891,P22.edf,212,Chose_Left,[3],3,1505,1252,1505,155,1442.214,FEWEST,5137661,1423,5139084,Experiment
68893,P22.edf,213,START_DRAWING,.,.,69,67,124,2,1628.017,FEWEST,5141644,1617,5143261,Experiment
69076,P22.edf,213,Chose_Left,[2],2,1684,1474,1684,185,1628.017,FEWEST,5141644,1617,5143261,Experiment
69077,P22.edf,213,ChoseLeft,[2],2,1684,1474,1684,186,1628.017,FEWEST,5141644,1617,5143261,Experiment
69079,P22.edf,214,START_DRAWING,.,.,66,65,100,2,2346.231,FEWEST,5145978,2339,5148317,Experiment
69317,P22.edf,214,Chose_Right,[3],3,2404,2352,2404,240,2346.231,FEWEST,5145978,2339,5148317,Experiment
69319,P22.edf,215,START_DRAWING,.,.,75,73,84,2,3316.3390000000004,FEWEST,5151744,3300,5155044,Experiment
69659,P22.edf,215,Chose_Left,[3],3,3373,2710,3373,342,3316.3390000000004,FEWEST,5151744,3300,5155044,Experiment
69661,P22.edf,216,START_DRAWING,.,.,77,75,132,2,3031.183,FEWEST,5157794,3019,5160813,Experiment
69964,P22.edf,216,Chose_Left,[2],2,3094,2868,3094,305,3031.183,FEWEST,5157794,3019,5160813,Experiment
69965,P22.edf,216,ChoseLeft,[2],2,3094,2868,3094,306,3031.183,FEWEST,5157794,3019,5160813,Experiment
69967,P22.edf,217,START_DRAWING,[2],2,84,81,310,2,2266.764,FEWEST,5163660,2248,5165908,Experiment
70192,P22.edf,217,Chose_Left,[2],2,2329,2084,2329,227,2266.764,FEWEST,5163660,2248,5165908,Experiment
70194,P22.edf,218,START_DRAWING,[2],2,75,.,.,2,1321.42,FEWEST,5168510,1311,5169821,Experiment
70350,P22.edf,218,Chose_Left,[3],3,1384,1050,1384,158,1321.42,FEWEST,5168510,1311,5169821,Experiment
70351,P22.edf,218,ChoseLeft,[3],3,1384,1050,1384,159,1321.42,FEWEST,5168510,1311,5169821,Experiment
70353,P22.edf,219,START_DRAWING,.,.,79,77,86,2,2265.431,FEWEST,5171994,2250,5174244,Experiment
70570,P22.edf,219,Chose_Right,[2],2,2327,2040,2327,219,2265.431,FEWEST,5171994,2250,5174244,Experiment
70572,P22.edf,220,START_DRAWING,.,.,84,.,.,2,4164.13,FEWEST,5177243,4145,5181388,Experiment
71050,P22.edf,220,Chose_Left,[2],2,4227,3906,4227,480,4164.13,FEWEST,5177243,4145,5181388,Experiment
71051,P22.edf,220,ChoseLeft,[2],2,4227,3906,4227,481,4164.13,FEWEST,5177243,4145,5181388,Experiment
71053,P22.edf,221,START_DRAWING,.,.,84,82,114,2,2726.3920000000003,FEWEST,5183993,2707,5186700,Experiment
71149,P22.edf,221,TRACKER_TIME 33 5185561.824,.,.,1651,.,.,98,2726.3920000000003,FEWEST,5183993,2707,5186700,Experiment
71312,P22.edf,221,Chose_Left,[2],2,2789,2502,2789,261,2726.3920000000003,FEWEST,5183993,2707,5186700,Experiment
71313,P22.edf,221,ChoseLeft,[2],2,2789,2502,2789,262,2726.3920000000003,FEWEST,5183993,2707,5186700,Experiment
71315,P22.edf,222,START_DRAWING,.,.,75,.,.,2,2464.949,FEWEST,5189460,2456,5191916,Experiment
71546,P22.edf,222,Chose_Right,[2],2,2529,2282,2529,233,2464.949,FEWEST,5189460,2456,5191916,Experiment
71548,P22.edf,223,START_DRAWING,.,.,80,.,.,2,1844.3139999999999,FEWEST,5194793,1827,5196620,Experiment
71729,P22.edf,223,Chose_Right,[3],3,1905,1714,1905,183,1844.3139999999999,FEWEST,5194793,1827,5196620,Experiment
71731,P22.edf,224,START_DRAWING,.,.,79,78,114,2,4667.099,FEWEST,5199877,4654,5204531,Experiment
72184,P22.edf,224,Chose_Right,[3],3,4732,4020,4732,455,4667.099,FEWEST,5199877,4654,5204531,Experiment
72186,P22.edf,225,START_DRAWING,.,.,76,73,338,2,3192.2270000000003,FEWEST,5208442,3178,5211620,Experiment
72470,P22.edf,225,Chose_Left,[2],2,3251,3032,3251,286,3192.2270000000003,FEWEST,5208442,3178,5211620,Experiment
72471,P22.edf,225,ChoseLeft,[2],2,3251,3032,3251,287,3192.2270000000003,FEWEST,5208442,3178,5211620,Experiment
72473,P22.edf,226,START_DRAWING,.,.,71,69,76,2,2169.18,FEWEST,5214576,2163,5216739,Experiment
72688,P22.edf,226,Chose_Left,[2],2,2232,1914,2232,217,2169.18,FEWEST,5214576,2163,5216739,Experiment
72689,P22.edf,226,ChoseLeft,[2],2,2232,1914,2232,218,2169.18,FEWEST,5214576,2163,5216739,Experiment
72691,P22.edf,227,START_DRAWING,[2],2,72,69,550,2,2349.446,FEWEST,5219626,2338,5221964,Experiment
72910,P22.edf,227,Chose_Right,[3],3,2407,2354,2407,221,2349.446,FEWEST,5219626,2338,5221964,Experiment
72911,P22.edf,227,ChoseRight,[3],3,2407,2354,2407,222,2349.446,FEWEST,5219626,2338,5221964,Experiment
72913,P22.edf,228,START_DRAWING,.,.,70,68,90,2,3171.303,FEWEST,5225909,3167,5229076,Experiment
73255,P22.edf,228,Chose_Left,[2],2,3235,2598,3235,344,3171.303,FEWEST,5225909,3167,5229076,Experiment
73256,P22.edf,228,ChoseLeft,[2],2,3235,2598,3235,345,3171.303,FEWEST,5225909,3167,5229076,Experiment
73258,P22.edf,229,START_DRAWING,[2],2,76,74,326,2,2993.885,FEWEST,5233209,2979,5236188,Experiment
73525,P22.edf,229,Chose_Left,[2],2,3053,2586,3053,269,2993.885,FEWEST,5233209,2979,5236188,Experiment
73526,P22.edf,229,ChoseLeft,[2],2,3053,2586,3053,270,2993.885,FEWEST,5233209,2979,5236188,Experiment
73528,P22.edf,230,START_DRAWING,.,.,77,75,278,2,2046.1970000000001,FEWEST,5238776,2035,5240811,Experiment
73734,P22.edf,230,Chose_Left,[2],2,2110,2030,2110,208,2046.1970000000001,FEWEST,5238776,2035,5240811,Experiment
73737,P22.edf,231,START_DRAWING,[2],2,70,.,.,3,2000.771,FEWEST,5244192,1996,5246188,Experiment
73881,P22.edf,231,TRACKER_TIME 34 5245577.671,[3],3,1452,1306,1542,147,2000.771,FEWEST,5244192,1996,5246188,Experiment
73934,P22.edf,231,Chose_Left,[2],2,2063,1614,2063,200,2000.771,FEWEST,5244192,1996,5246188,Experiment
73935,P22.edf,231,ChoseLeft,[2],2,2063,1614,2063,201,2000.771,FEWEST,5244192,1996,5246188,Experiment
73937,P22.edf,232,START_DRAWING,.,.,70,69,108,2,3949.34,FEWEST,5248476,3943,5252419,Experiment
74355,P22.edf,232,Chose_Right,[3],3,4012,3592,4012,420,3949.34,FEWEST,5248476,3943,5252419,Experiment
74357,P22.edf,233,START_DRAWING,.,.,65,64,132,2,2302.897,FEWEST,5255009,2298,5257307,Experiment
74586,P22.edf,233,Chose_Right,[2],2,2362,1784,2362,231,2302.897,FEWEST,5255009,2298,5257307,Experiment
74587,P22.edf,233,ChoseRight,[2],2,2362,1784,2362,232,2302.897,FEWEST,5255009,2298,5257307,Experiment
74589,P22.edf,234,START_DRAWING,.,.,75,.,.,2,1967.521,FEWEST,5260492,1958,5262450,Experiment
74792,P22.edf,234,Chose_Left,[2],2,2031,1504,2031,205,1967.521,FEWEST,5260492,1958,5262450,Experiment
74794,P22.edf,235,START_DRAWING,.,.,71,69,130,2,5436.005,FEWEST,5266408,5426,5271834,Experiment
75315,P22.edf,235,Chose_Left,[3],3,5495,5238,5495,523,5436.005,FEWEST,5266408,5426,5271834,Experiment
75316,P22.edf,235,ChoseLeft,[3],3,5495,5238,5495,524,5436.005,FEWEST,5266408,5426,5271834,Experiment
75319,P22.edf,236,START_DRAWING,[2],2,77,74,264,3,1555.0420000000001,FEWEST,5275091,1544,5276635,Experiment
75480,P22.edf,236,Chose_Left,[2],2,1618,1398,1618,164,1555.0420000000001,FEWEST,5275091,1544,5276635,Experiment
75482,P22.edf,237,START_DRAWING,.,.,82,80,218,2,1991.723,FEWEST,5279525,1973,5281498,Experiment
75684,P22.edf,237,Chose_Left,[2],2,2053,1982,2053,204,1991.723,FEWEST,5279525,1973,5281498,Experiment
75685,P22.edf,237,ChoseLeft,[2],2,2053,1982,2053,205,1991.723,FEWEST,5279525,1973,5281498,Experiment
75687,P22.edf,238,START_DRAWING,.,.,76,73,330,2,3401.665,FEWEST,5284874,3393,5288267,Experiment
76030,P22.edf,238,Chose_Left,[3],3,3466,2904,3466,345,3401.665,FEWEST,5284874,3393,5288267,Experiment
76031,P22.edf,238,ChoseLeft,[3],3,3466,2904,3466,346,3401.665,FEWEST,5284874,3393,5288267,Experiment
76033,P22.edf,239,START_DRAWING,.,.,81,79,108,2,4202.816,FEWEST,5291008,4186,5295194,Experiment
76436,P22.edf,239,Chose_Right,[3],3,4265,4024,4265,405,4202.816,FEWEST,5291008,4186,5295194,Experiment
76437,P22.edf,239,ChoseRight,[3],3,4265,4024,4265,406,4202.816,FEWEST,5291008,4186,5295194,Experiment
76439,P22.edf,240,START_DRAWING,.,.,81,.,.,2,2110.906,FEWEST,5297458,2096,5299554,Experiment
76666,P22.edf,240,Chose_Right,[3],3,2175,1890,2175,229,2110.906,FEWEST,5297458,2096,5299554,Experiment
76667,P22.edf,240,ChoseRight,[3],3,2175,1890,2175,230,2110.906,FEWEST,5297458,2096,5299554,Experiment
76669,P22.edf,241,START_DRAWING,[2],2,74,.,.,2,3496.366,MOST,5336873,3488,5340361,Experiment
77089,P22.edf,241,Chose_Right,.,.,3560,3074,3560,422,3496.366,MOST,5336873,3488,5340361,Experiment
77090,P22.edf,241,ChoseRight,.,.,3560,3074,3560,423,3496.366,MOST,5336873,3488,5340361,Experiment
77092,P22.edf,242,START_DRAWING,.,.,64,.,.,2,2849.513,MOST,5342957,2844,5345801,Experiment
77402,P22.edf,242,Chose_Right,[3],3,2906,2826,2906,312,2849.513,MOST,5342957,2844,5345801,Experiment
77403,P22.edf,242,ChoseRight,[3],3,2906,2826,2906,313,2849.513,MOST,5342957,2844,5345801,Experiment
77406,P22.edf,243,START_DRAWING,[2],2,70,.,.,3,1540.3929999999998,MOST,5348990,1531,5350521,Experiment
77602,P22.edf,243,Chose_Right,[3],3,1598,1300,1598,199,1540.3929999999998,MOST,5348990,1531,5350521,Experiment
77604,P22.edf,244,START_DRAWING,.,.,72,70,74,2,2342.863,MOST,5352773,2332,5355105,Experiment
77831,P22.edf,244,Chose_Left,[2],2,2402,2148,2402,229,2342.863,MOST,5352773,2332,5355105,Experiment
77832,P22.edf,244,ChoseLeft,[2],2,2402,2148,2402,230,2342.863,MOST,5352773,2332,5355105,Experiment
77834,P22.edf,245,START_DRAWING,[2],2,85,83,236,2,2502.521,MOST,5358040,2481,5360521,Experiment
78121,P22.edf,245,Chose_Right,[3],3,2564,2428,2564,289,2502.521,MOST,5358040,2481,5360521,Experiment
78124,P22.edf,246,START_DRAWING,[2],2,79,76,216,3,1799.6270000000002,MOST,5364039,1786,5365825,Experiment
78295,P22.edf,246,TRACKER_TIME 36 5365608.537,[2],2,1645,1358,1736,174,1799.6270000000002,MOST,5364039,1786,5365825,Experiment
78309,P22.edf,246,Chose_Left,[2],2,1862,1760,1862,188,1799.6270000000002,MOST,5364039,1786,5365825,Experiment
78311,P22.edf,247,START_DRAWING,.,.,81,79,412,2,5352.23,MOST,5370456,5336,5375792,Experiment
78789,P22.edf,247,Chose_Right,[3],3,5415,4854,5415,480,5352.23,MOST,5370456,5336,5375792,Experiment
78790,P22.edf,247,ChoseRight,[3],3,5415,4854,5415,481,5352.23,MOST,5370456,5336,5375792,Experiment
78792,P22.edf,248,START_DRAWING,.,.,84,82,88,2,2424.21,MOST,5379139,2405,5381544,Experiment
78998,P22.edf,248,Chose_Left,[2],2,2487,1966,2487,208,2424.21,MOST,5379139,2405,5381544,Experiment
78999,P22.edf,248,ChoseLeft,[2],2,2487,1966,2487,209,2424.21,MOST,5379139,2405,5381544,Experiment
79001,P22.edf,249,START_DRAWING,.,.,71,69,98,2,1269.404,MOST,5385106,1263,5386369,Experiment
79134,P22.edf,249,Chose_Right,[3],3,1332,886,1332,135,1269.404,MOST,5385106,1263,5386369,Experiment
79135,P22.edf,249,ChoseRight,[3],3,1332,886,1332,136,1269.404,MOST,5385106,1263,5386369,Experiment
79137,P22.edf,250,START_DRAWING,[2],2,84,.,.,2,2779.2740000000003,MOST,5390056,2760,5392816,Experiment
79465,P22.edf,250,Chose_Left,[3],3,2841,2310,2841,330,2779.2740000000003,MOST,5390056,2760,5392816,Experiment
79467,P22.edf,251,START_DRAWING,.,.,74,.,.,2,2537.132,MOST,5395689,2527,5398216,Experiment
79694,P22.edf,251,Chose_Left,[2],2,2599,2142,2599,229,2537.132,MOST,5395689,2527,5398216,Experiment
79697,P22.edf,252,START_DRAWING,[2],2,72,69,522,3,2351.272,MOST,5400872,2344,5403216,Experiment
79968,P22.edf,252,Chose_Right,[3],3,2413,1970,2413,274,2351.272,MOST,5400872,2344,5403216,Experiment
79970,P22.edf,253,START_DRAWING,.,.,76,.,.,2,2358.716,MOST,5406189,2348,5408537,Experiment
80222,P22.edf,253,Chose_Left,[2],2,2422,2186,2422,254,2358.716,MOST,5406189,2348,5408537,Experiment
80223,P22.edf,253,ChoseLeft,[2],2,2422,2186,2422,255,2358.716,MOST,5406189,2348,5408537,Experiment
80226,P22.edf,254,START_DRAWING,[2],2,71,68,210,3,2684.724,MOST,5412505,2679,5415184,Experiment
80539,P22.edf,254,Chose_Left,[2],2,2747,2592,2747,316,2684.724,MOST,5412505,2679,5415184,Experiment
80541,P22.edf,255,START_DRAWING,.,.,75,72,132,2,1983.477,MOST,5417521,1974,5419495,Experiment
80765,P22.edf,255,Chose_Right,[2],2,2046,1654,2046,226,1983.477,MOST,5417521,1974,5419495,Experiment
80766,P22.edf,255,ChoseRight,[2],2,2046,1654,2046,227,1983.477,MOST,5417521,1974,5419495,Experiment
80768,P22.edf,256,START_DRAWING,.,.,81,78,358,2,4650.79,MOST,5423021,4634,5427655,Experiment
81008,P22.edf,256,TRACKER_TIME 37 5425623.980,[2],2,2681,2404,2752,242,4650.79,MOST,5423021,4634,5427655,Experiment
81267,P22.edf,256,Chose_Right,[3],3,4712,4486,4712,501,4650.79,MOST,5423021,4634,5427655,Experiment
81269,P22.edf,257,START_DRAWING,.,.,81,78,268,2,3835.065,MOST,5430571,3820,5434391,Experiment
81656,P22.edf,257,Chose_Left,[2],2,3898,3728,3898,389,3835.065,MOST,5430571,3820,5434391,Experiment
81657,P22.edf,257,ChoseLeft,[2],2,3898,3728,3898,390,3835.065,MOST,5430571,3820,5434391,Experiment
81659,P22.edf,258,START_DRAWING,.,.,83,80,142,2,3849.2059999999997,MOST,5437271,3832,5441103,Experiment
82016,P22.edf,258,Chose_Right,[3],3,3912,3820,3912,359,3849.2059999999997,MOST,5437271,3832,5441103,Experiment
82017,P22.edf,258,ChoseRight,[3],3,3912,3820,3912,360,3849.2059999999997,MOST,5437271,3832,5441103,Experiment
82019,P22.edf,259,START_DRAWING,.,.,75,73,76,2,3243.343,MOST,5443788,3227,5447015,Experiment
82310,P22.edf,259,Chose_Left,[2],2,3300,3234,3300,293,3243.343,MOST,5443788,3227,5447015,Experiment
82312,P22.edf,260,START_DRAWING,[2],2,85,.,.,2,1644.5839999999998,MOST,5449621,1626,5451247,Experiment
82479,P22.edf,260,Chose_Right,[3],3,1708,1576,1708,169,1644.5839999999998,MOST,5449621,1626,5451247,Experiment
82480,P22.edf,260,ChoseRight,[3],3,1708,1576,1708,170,1644.5839999999998,MOST,5449621,1626,5451247,Experiment
82482,P22.edf,261,START_DRAWING,.,.,77,76,138,2,1274.981,MOST,5453505,1262,5454767,Experiment
82631,P22.edf,261,Chose_Right,[3],3,1338,1278,1338,151,1274.981,MOST,5453505,1262,5454767,Experiment
82632,P22.edf,261,ChoseRight,[3],3,1338,1278,1338,152,1274.981,MOST,5453505,1262,5454767,Experiment
82635,P22.edf,262,START_DRAWING,[2],2,78,76,284,3,2589.055,MOST,5457471,2575,5460046,Experiment
82950,P22.edf,262,Chose_Right,[3],3,2651,2462,2651,318,2589.055,MOST,5457471,2575,5460046,Experiment
82951,P22.edf,262,ChoseRight,[3],3,2651,2462,2651,319,2589.055,MOST,5457471,2575,5460046,Experiment
82953,P22.edf,263,START_DRAWING,.,.,64,.,.,2,2300.565,MOST,5463338,2293,5465631,Experiment
83184,P22.edf,263,Chose_Left,[2],2,2356,1870,2356,233,2300.565,MOST,5463338,2293,5465631,Experiment
83186,P22.edf,264,START_DRAWING,.,.,83,82,268,2,2922.026,MOST,5469654,2905,5472559,Experiment
83442,P22.edf,264,Chose_Left,[2],2,2986,2844,2986,258,2922.026,MOST,5469654,2905,5472559,Experiment
83443,P22.edf,264,ChoseLeft,[2],2,2986,2844,2986,259,2922.026,MOST,5469654,2905,5472559,Experiment
83445,P22.edf,265,START_DRAWING,.,.,80,78,112,2,1135.847,MOST,5474687,1120,5475807,Experiment
83582,P22.edf,265,Chose_Right,[3],3,1198,1002,1198,139,1135.847,MOST,5474687,1120,5475807,Experiment
83583,P22.edf,265,ChoseRight,[3],3,1198,1002,1198,140,1135.847,MOST,5474687,1120,5475807,Experiment
83585,P22.edf,266,START_DRAWING,[2],2,71,69,246,2,1991.672,MOST,5479354,1981,5481335,Experiment
83808,P22.edf,266,Chose_Right,[3],3,2050,1758,2050,225,1991.672,MOST,5479354,1981,5481335,Experiment
83809,P22.edf,266,ChoseRight,[3],3,2050,1758,2050,226,1991.672,MOST,5479354,1981,5481335,Experiment
83811,P22.edf,267,START_DRAWING,.,.,79,.,.,2,1851.808,MOST,5484720,1838,5486558,Experiment
83892,P22.edf,267,TRACKER_TIME 38 5485639.407,[3],3,996,806,1302,83,1851.808,MOST,5484720,1838,5486558,Experiment
83992,P22.edf,267,Chose_Left,[2],2,1915,1370,1915,183,1851.808,MOST,5484720,1838,5486558,Experiment
83994,P22.edf,268,START_DRAWING,.,.,152,150,194,2,1321.0339999999999,MOST,5489037,1313,5490350,Experiment
84132,P22.edf,268,Chose_Right,[3],3,1463,1340,1463,140,1321.0339999999999,MOST,5489037,1313,5490350,Experiment
84133,P22.edf,268,ChoseRight,[3],3,1463,1340,1463,141,1321.0339999999999,MOST,5489037,1313,5490350,Experiment
84136,P22.edf,269,START_DRAWING,[2],2,77,74,252,3,4003.1240000000003,MOST,5493453,3992,5497445,Experiment
84552,P22.edf,269,Chose_Right,[2],2,4066,3550,4066,419,4003.1240000000003,MOST,5493453,3992,5497445,Experiment
84555,P22.edf,270,START_DRAWING,[2],2,73,70,548,3,1954.281,MOST,5500903,1942,5502845,Experiment
84748,P22.edf,270,Chose_Left,[2],2,2012,1592,2012,196,1954.281,MOST,5500903,1942,5502845,Experiment
84751,P22.edf,271,START_DRAWING,[2],2,75,.,.,3,2030.128,MOST,5505720,2021,5507741,Experiment
84981,P22.edf,271,Chose_Right,[3],3,2094,1794,2094,233,2030.128,MOST,5505720,2021,5507741,Experiment
84982,P22.edf,271,ChoseRight,[3],3,2094,1794,2094,234,2030.128,MOST,5505720,2021,5507741,Experiment
84984,P22.edf,272,START_DRAWING,.,.,80,.,.,2,1964.125,MOST,5510353,1948,5512301,Experiment
85164,P22.edf,272,Chose_Left,[2],2,2026,1572,2026,182,1964.125,MOST,5510353,1948,5512301,Experiment
85165,P22.edf,272,ChoseLeft,[2],2,2026,1572,2026,183,1964.125,MOST,5510353,1948,5512301,Experiment
85167,P22.edf,273,START_DRAWING,.,.,85,83,104,2,2014.069,MOST,5514820,1994,5516814,Experiment
85358,P22.edf,273,Chose_Left,[2],2,2077,1952,2077,193,2014.069,MOST,5514820,1994,5516814,Experiment
85359,P22.edf,273,ChoseLeft,[2],2,2077,1952,2077,194,2014.069,MOST,5514820,1994,5516814,Experiment
85361,P22.edf,274,START_DRAWING,.,.,84,.,.,2,1598.829,MOST,5519352,1580,5520932,Experiment
85539,P22.edf,274,Chose_Right,[3],3,1661,1190,1661,180,1598.829,MOST,5519352,1580,5520932,Experiment
85541,P22.edf,275,START_DRAWING,.,.,79,76,154,2,1453.6029999999998,MOST,5523819,1434,5525253,Experiment
85713,P22.edf,275,Chose_Right,[3],3,1510,838,1510,174,1453.6029999999998,MOST,5523819,1434,5525253,Experiment
85715,P22.edf,276,START_DRAWING,[2],2,74,71,258,2,1977.727,MOST,5528836,1969,5530805,Experiment
85900,P22.edf,276,Chose_Right,[2],2,2040,1494,2040,187,1977.727,MOST,5528836,1969,5530805,Experiment
85902,P22.edf,277,START_DRAWING,.,.,78,76,246,2,1623.8970000000002,MOST,5534469,1607,5536076,Experiment
86088,P22.edf,277,Chose_Right,[3],3,1683,1408,1683,188,1623.8970000000002,MOST,5534469,1607,5536076,Experiment
86091,P22.edf,278,START_DRAWING,[2],2,74,.,.,3,2901.364,MOST,5539352,2893,5542245,Experiment
86375,P22.edf,278,Chose_Right,[3],3,2964,2646,2964,287,2901.364,MOST,5539352,2893,5542245,Experiment
86376,P22.edf,278,ChoseRight,[3],3,2964,2646,2964,288,2901.364,MOST,5539352,2893,5542245,Experiment
86379,P22.edf,279,START_DRAWING,[2],2,74,71,238,3,1565.164,MOST,5546352,1557,5547909,Experiment
86559,P22.edf,279,Chose_Right,[3],3,1628,1436,1628,183,1565.164,MOST,5546352,1557,5547909,Experiment
86561,P22.edf,280,START_DRAWING,[2],2,71,.,.,2,1559.884,MOST,5550486,1550,5552036,Experiment
86743,P22.edf,280,Chose_Right,[3],3,1619,1274,1619,184,1559.884,MOST,5550486,1550,5552036,Experiment
86745,P23.edf,1,START_DRAWING,.,.,81,79,372,2,39111.776,MOST,12603035,39095,12642130,Practice1
89282,P23.edf,1,TRACKER_TIME 2 12632336.064,.,.,29380,.,.,2539,39111.776,MOST,12603035,39095,12642130,Practice1
90697,P23.edf,1,Chose_Right,[3],3,39174,38610,39174,3954,39111.776,MOST,12603035,39095,12642130,Practice1
90699,P23.edf,2,START_DRAWING,.,.,84,.,.,2,23950.201,MOST,12655534,23931,12679465,Practice1
93368,P23.edf,2,Chose_Right,[3],3,24013,23996,24013,2671,23950.201,MOST,12655534,23931,12679465,Practice1
93369,P23.edf,2,ChoseRight,[3],3,24013,23996,24013,2672,23950.201,MOST,12655534,23931,12679465,Practice1
93371,P23.edf,3,START_DRAWING,.,.,76,.,.,2,36518.913,MOST,12690300,36508,12726808,Practice1
93496,P23.edf,3,TRACKER_TIME 3 12692351.794,[2],2,2126,1946,2262,127,36518.913,MOST,12690300,36508,12726808,Practice1
96658,P23.edf,3,Chose_Left,[3],3,36582,.,.,3289,36518.913,MOST,12690300,36508,12726808,Practice1
96659,P23.edf,3,ChoseLeft,[3],3,36582,.,.,3290,36518.913,MOST,12690300,36508,12726808,Practice1
96661,P23.edf,4,START_DRAWING,.,.,76,.,.,2,36393.727,MOST,12733783,36376,12770159,Practice1
97803,P23.edf,4,TRACKER_TIME 4 12752366.936,.,.,18659,18056,19002,1144,36393.727,MOST,12733783,36376,12770159,Practice1
99334,P23.edf,4,Chose_Right,[3],3,36451,36366,36451,2675,36393.727,MOST,12733783,36376,12770159,Practice1
99335,P23.edf,4,ChoseRight,[3],3,36451,36366,36451,2676,36393.727,MOST,12733783,36376,12770159,Practice1
99338,P23.edf,5,START_DRAWING,[2],2,83,81,290,3,7672.311,MOST,12774615,7656,12782271,Practice1
99956,P23.edf,5,Chose_Right,[3],3,7737,7376,7737,621,7672.311,MOST,12774615,7656,12782271,Practice1
99957,P23.edf,5,ChoseRight,[3],3,7737,7376,7737,622,7672.311,MOST,12774615,7656,12782271,Practice1
99959,P23.edf,6,START_DRAWING,.,.,78,76,138,2,3838.132,MOST,12789014,3824,12792838,Practice1
100326,P23.edf,6,Chose_Right,[3],3,3900,3798,3900,369,3838.132,MOST,12789014,3824,12792838,Practice1
100327,P23.edf,6,ChoseRight,[3],3,3900,3798,3900,370,3838.132,MOST,12789014,3824,12792838,Practice1
100329,P23.edf,7,START_DRAWING,.,.,79,77,214,2,4035.3070000000002,MOST,12799397,4018,12803415,Practice1
100680,P23.edf,7,Chose_Right,[3],3,4095,3980,4095,353,4035.3070000000002,MOST,12799397,4018,12803415,Practice1
100682,P23.edf,8,START_DRAWING,.,.,83,80,258,2,5296.696,MOST,12810830,5280,12816110,Practice1
100781,P23.edf,8,TRACKER_TIME 5 12812382.651,[2],2,1632,1620,1830,101,5296.696,MOST,12810830,5280,12816110,Practice1
101181,P23.edf,8,Chose_Right,[3],3,5360,5338,5360,501,5296.696,MOST,12810830,5280,12816110,Practice1
101182,P23.edf,8,ChoseRight,[3],3,5360,5338,5360,502,5296.696,MOST,12810830,5280,12816110,Practice1
101184,P23.edf,9,START_DRAWING,.,.,67,65,126,2,4487.622,MOST,12822647,4479,12827126,Practice1
101622,P23.edf,9,Chose_Right,[3],3,4544,4536,4544,440,4487.622,MOST,12822647,4479,12827126,Practice1
101624,P23.edf,10,START_DRAWING,.,.,70,68,96,2,13066.618999999999,MOST,12833880,13061,12846941,Practice1
102923,P23.edf,10,Chose_Right,[3],3,13129,12980,13129,1301,13066.618999999999,MOST,12833880,13061,12846941,Practice1
102925,P23.edf,11,START_DRAWING,.,.,75,73,278,2,6380.698,FEWEST,12903745,6371,12910116,Practice1
103420,P23.edf,11,Chose_Left,.,.,6444,6406,6444,497,6380.698,FEWEST,12903745,6371,12910116,Practice1
103421,P23.edf,11,ChoseLeft,.,.,6444,6406,6444,498,6380.698,FEWEST,12903745,6371,12910116,Practice1
103423,P23.edf,12,START_DRAWING,.,.,74,72,116,2,18222.826,FEWEST,12913928,18212,12932140,Practice1
106101,P23.edf,12,Chose_Right,[3],3,18284,18228,18284,2680,18222.826,FEWEST,12913928,18212,12932140,Practice1
106102,P23.edf,12,ChoseRight,[3],3,18284,18228,18284,2681,18222.826,FEWEST,12913928,18212,12932140,Practice1
106104,P23.edf,13,START_DRAWING,.,.,84,81,162,2,5407.482,FEWEST,12938677,5391,12944068,Practice1
106763,P23.edf,13,Chose_Left,[3],3,5472,5200,5472,661,5407.482,FEWEST,12938677,5391,12944068,Practice1
106764,P23.edf,13,ChoseLeft,[3],3,5472,5200,5472,662,5407.482,FEWEST,12938677,5391,12944068,Practice1
106766,P23.edf,14,START_DRAWING,.,.,72,71,106,2,20765.839,FEWEST,12948095,20756,12968851,Practice1
107444,P23.edf,14,TRACKER_TIME 7 12959162.940,[2],2,11139,10658,11280,680,20765.839,FEWEST,12948095,20756,12968851,Practice1
108614,P23.edf,14,Chose_Left,.,.,20827,20764,20827,1850,20765.839,FEWEST,12948095,20756,12968851,Practice1
108615,P23.edf,14,ChoseLeft,.,.,20827,20764,20827,1851,20765.839,FEWEST,12948095,20756,12968851,Practice1
108617,P23.edf,15,START_DRAWING,.,.,72,70,72,2,7830.102,FEWEST,12973644,7823,12981467,Practice1
109538,P23.edf,15,Chose_Right,[3],3,7893,7636,7893,923,7830.102,FEWEST,12973644,7823,12981467,Practice1
109539,P23.edf,15,ChoseRight,[3],3,7893,7636,7893,924,7830.102,FEWEST,12973644,7823,12981467,Practice1
109541,P23.edf,16,START_DRAWING,.,.,73,.,.,2,4039.65,FEWEST,12985627,4031,12989658,Practice1
109898,P23.edf,16,Chose_Left,[3],3,4102,3446,4102,359,4039.65,FEWEST,12985627,4031,12989658,Practice1
109899,P23.edf,16,ChoseLeft,[3],3,4102,3446,4102,360,4039.65,FEWEST,12985627,4031,12989658,Practice1
109901,P23.edf,17,START_DRAWING,.,.,67,64,244,2,2619.37,FEWEST,13000276,2614,13002890,Practice1
110141,P23.edf,17,Chose_Left,[3],3,2678,2550,2678,242,2619.37,FEWEST,13000276,2614,13002890,Practice1
110142,P23.edf,17,ChoseLeft,[3],3,2678,2550,2678,243,2619.37,FEWEST,13000276,2614,13002890,Practice1
110144,P23.edf,18,START_DRAWING,.,.,73,71,256,2,5603.911999999999,FEWEST,13006743,5596,13012339,Practice1
110701,P23.edf,18,Chose_Right,.,.,5667,5662,5667,559,5603.911999999999,FEWEST,13006743,5596,13012339,Practice1
110702,P23.edf,18,ChoseRight,.,.,5667,5662,5667,560,5603.911999999999,FEWEST,13006743,5596,13012339,Practice1
110704,P23.edf,19,START_DRAWING,.,.,84,82,234,2,10692.698,FEWEST,13017776,10673,13028449,Practice1
110791,P23.edf,19,TRACKER_TIME 8 13019177.990,.,.,1484,1296,1614,89,10692.698,FEWEST,13017776,10673,13028449,Practice1
111633,P23.edf,19,Chose_Right,[3],3,10755,10534,10755,931,10692.698,FEWEST,13017776,10673,13028449,Practice1
111635,P23.edf,20,START_DRAWING,.,.,78,76,204,2,12737.753,FEWEST,13036376,12721,13049097,Practice1
113080,P23.edf,20,Chose_Right,[3],3,12797,12672,12797,1447,12737.753,FEWEST,13036376,12721,13049097,Practice1
113082,P23.edf,21,START_DRAWING,.,.,73,.,.,2,4971.174,MOST,13086225,4959,13091184,Practice2
113513,P23.edf,21,Chose_Right,.,.,5030,.,.,433,4971.174,MOST,13086225,4959,13091184,Practice2
113514,P23.edf,21,ChoseRight,.,.,5030,.,.,434,4971.174,MOST,13086225,4959,13091184,Practice2
113516,P23.edf,22,START_DRAWING,.,.,73,71,234,2,6933.6990000000005,MOST,13096275,6925,13103200,Practice2
114295,P23.edf,22,Chose_Right,[3],3,6996,6634,6996,781,6933.6990000000005,MOST,13096275,6925,13103200,Practice2
114296,P23.edf,22,ChoseRight,[3],3,6996,6634,6996,782,6933.6990000000005,MOST,13096275,6925,13103200,Practice2
114298,P23.edf,23,START_DRAWING,.,.,74,.,.,2,14595.616000000002,MOST,13108908,14588,13123496,Practice2
115439,P23.edf,23,Chose_Left,[3],3,14660,14342,14660,1143,14595.616000000002,MOST,13108908,14588,13123496,Practice2
115440,P23.edf,23,ChoseLeft,[3],3,14660,14342,14660,1144,14595.616000000002,MOST,13108908,14588,13123496,Practice2
115442,P23.edf,24,START_DRAWING,.,.,76,74,258,2,10609.611,MOST,13128874,10598,13139472,Practice2
116557,P23.edf,24,Chose_Left,[3],3,10672,10364,10672,1117,10609.611,MOST,13128874,10598,13139472,Practice2
116559,P23.edf,25,START_DRAWING,.,.,82,80,302,2,5205.005,MOST,13143324,5187,13148511,Practice2
117172,P23.edf,25,Chose_Right,[3],3,5267,5010,5267,615,5205.005,MOST,13143324,5187,13148511,Practice2
117174,P23.edf,26,START_DRAWING,.,.,66,64,100,2,11271.761999999999,MOST,13153740,11267,13165007,Practice2
118726,P23.edf,26,Chose_Left,[3],3,11331,11016,11331,1554,11271.761999999999,MOST,13153740,11267,13165007,Practice2
118727,P23.edf,26,ChoseLeft,[3],3,11331,11016,11331,1555,11271.761999999999,MOST,13153740,11267,13165007,Practice2
118729,P23.edf,27,START_DRAWING,.,.,76,75,220,2,23664.632,MOST,13172657,23654,13196311,Practice2
121932,P23.edf,27,Chose_Right,[2],2,23729,.,.,3205,23664.632,MOST,13172657,23654,13196311,Practice2
121934,P23.edf,28,START_DRAWING,.,.,75,73,326,2,6228.134,MOST,13206339,6219,13212558,Practice2
122529,P23.edf,28,Chose_Right,[3],3,6292,.,.,597,6228.134,MOST,13206339,6219,13212558,Practice2
122531,P23.edf,29,START_DRAWING,.,.,73,71,82,2,4900.63,MOST,13215089,4886,13219975,Practice2
123002,P23.edf,29,Chose_Left,[3],3,4957,4780,4957,473,4900.63,MOST,13215089,4886,13219975,Practice2
123003,P23.edf,29,ChoseLeft,[3],3,4957,4780,4957,474,4900.63,MOST,13215089,4886,13219975,Practice2
123005,P23.edf,30,START_DRAWING,.,.,81,.,.,2,28002.805,MOST,13223089,27987,13251076,Practice2
127432,P23.edf,30,Chose_Left,[3],3,28066,27894,28066,4429,28002.805,MOST,13223089,27987,13251076,Practice2
127434,P23.edf,31,START_DRAWING,.,.,69,67,122,2,17761.814,FEWEST,13284087,17757,13301844,Practice2
128675,P23.edf,31,Chose_Right,[3],3,17824,17748,17824,1243,17761.814,FEWEST,13284087,17757,13301844,Practice2
128677,P23.edf,32,START_DRAWING,.,.,85,83,260,2,4316.833,FEWEST,13306137,4298,13310435,Practice2
129040,P23.edf,32,Chose_Left,[3],3,4381,4308,4381,365,4316.833,FEWEST,13306137,4298,13310435,Practice2
129041,P23.edf,32,ChoseLeft,[3],3,4381,4308,4381,366,4316.833,FEWEST,13306137,4298,13310435,Practice2
129043,P23.edf,33,START_DRAWING,.,.,73,71,270,2,5500.441,FEWEST,13313737,5492,13319229,Practice2
129646,P23.edf,33,Chose_Right,[3],3,5563,5324,5563,605,5500.441,FEWEST,13313737,5492,13319229,Practice2
129647,P23.edf,33,ChoseRight,[3],3,5563,5324,5563,606,5500.441,FEWEST,13313737,5492,13319229,Practice2
129649,P23.edf,34,START_DRAWING,.,.,81,79,104,2,8913.649,FEWEST,13323353,8898,13332251,Practice2
130890,P23.edf,34,Chose_Left,[3],3,8977,8758,8977,1243,8913.649,FEWEST,13323353,8898,13332251,Practice2
130892,P23.edf,35,START_DRAWING,.,.,77,.,.,2,37929.39,FEWEST,13338669,37920,13376589,Practice2
130895,P23.edf,35,TRACKER_TIME 13 13338704.743,.,.,111,.,.,5,37929.39,FEWEST,13338669,37920,13376589,Practice2
134072,P23.edf,35,Chose_Right,[3],3,37995,37720,37995,3182,37929.39,FEWEST,13338669,37920,13376589,Practice2
134073,P23.edf,35,ChoseRight,[3],3,37995,37720,37995,3183,37929.39,FEWEST,13338669,37920,13376589,Practice2
134075,P23.edf,36,START_DRAWING,.,.,79,78,278,2,9034.196,FEWEST,13379719,9019,13388738,Practice2
134970,P23.edf,36,Chose_Right,[3],3,9096,8820,9096,897,9034.196,FEWEST,13379719,9019,13388738,Practice2
134972,P23.edf,37,START_DRAWING,.,.,65,.,.,2,6409.071,FEWEST,13391685,6404,13398089,Practice2
135696,P23.edf,37,Chose_Left,[2],2,6467,6434,6467,726,6409.071,FEWEST,13391685,6404,13398089,Practice2
135698,P23.edf,38,START_DRAWING,.,.,81,79,84,2,3314.277,FEWEST,13400851,3295,13404146,Practice2
136021,P23.edf,38,Chose_Left,[3],3,3374,3098,3374,325,3314.277,FEWEST,13400851,3295,13404146,Practice2
136022,P23.edf,38,ChoseLeft,[3],3,3374,3098,3374,326,3314.277,FEWEST,13400851,3295,13404146,Practice2
136024,P23.edf,39,START_DRAWING,.,.,83,81,126,2,48153.888,FEWEST,13407001,48137,13455138,Practice2
143412,P23.edf,39,Chose_Left,[2],2,48218,48196,48218,7390,48153.888,FEWEST,13407001,48137,13455138,Practice2
143413,P23.edf,39,ChoseLeft,[2],2,48218,48196,48218,7391,48153.888,FEWEST,13407001,48137,13455138,Practice2
143415,P23.edf,40,START_DRAWING,.,.,75,.,.,2,4954.842000000001,FEWEST,13461967,4946,13466913,Beginning
143881,P23.edf,40,Chose_Right,[3],3,5019,4732,5019,468,4954.842000000001,FEWEST,13461967,4946,13466913,Beginning
143882,P23.edf,40,ChoseRight,[3],3,5019,4732,5019,469,4954.842000000001,FEWEST,13461967,4946,13466913,Beginning
143884,P23.edf,41,START_DRAWING,.,.,70,.,.,2,6228.547,MOST,13560065,6222,13566287,Experiment
144557,P23.edf,41,Chose_Right,[3],3,6290,6058,6290,675,6228.547,MOST,13560065,6222,13566287,Experiment
144558,P23.edf,41,ChoseRight,[3],3,6290,6058,6290,676,6228.547,MOST,13560065,6222,13566287,Experiment
144560,P23.edf,42,START_DRAWING,.,.,72,71,296,2,6635.751,MOST,13570582,6625,13577207,Experiment
145295,P23.edf,42,Chose_Right,[3],3,6696,6690,6696,737,6635.751,MOST,13570582,6625,13577207,Experiment
145296,P23.edf,42,ChoseRight,[3],3,6696,6690,6696,738,6635.751,MOST,13570582,6625,13577207,Experiment
145298,P23.edf,43,START_DRAWING,.,.,78,76,102,2,4766.744000000001,MOST,13580181,4753,13584934,Experiment
145691,P23.edf,43,Chose_Left,[3],3,4829,4782,4829,395,4766.744000000001,MOST,13580181,4753,13584934,Experiment
145692,P23.edf,43,ChoseLeft,[3],3,4829,4782,4829,396,4766.744000000001,MOST,13580181,4753,13584934,Experiment
145694,P23.edf,44,START_DRAWING,.,.,86,.,.,2,10945.402,MOST,13588081,10925,13599006,Experiment
146729,P23.edf,44,Chose_Left,[2],2,11009,10928,11009,1037,10945.402,MOST,13588081,10925,13599006,Experiment
146730,P23.edf,44,ChoseLeft,[2],2,11009,10928,11009,1038,10945.402,MOST,13588081,10925,13599006,Experiment
146732,P23.edf,45,START_DRAWING,.,.,80,77,92,2,5673.265,MOST,13605680,5661,13611341,Experiment
146919,P23.edf,45,TRACKER_TIME 17 13608766.029,[2],2,3163,3060,3322,189,5673.265,MOST,13605680,5661,13611341,Experiment
147170,P23.edf,45,Chose_Right,[3],3,5738,5610,5738,440,5673.265,MOST,13605680,5661,13611341,Experiment
147172,P23.edf,46,START_DRAWING,.,.,68,66,76,2,46657.359000000004,MOST,13614297,46653,13660950,Experiment
153447,P23.edf,46,Chose_Right,[3],3,46719,46330,46719,6277,46657.359000000004,MOST,13614297,46653,13660950,Experiment
153449,P23.edf,47,START_DRAWING,.,.,80,78,276,2,7750.691,MOST,13666413,7736,13674149,Experiment
153593,P23.edf,47,TRACKER_TIME 18 13668781.641,[2],2,2446,2364,2586,146,7750.691,MOST,13666413,7736,13674149,Experiment
154164,P23.edf,47,Chose_Left,[3],3,7814,7736,7814,717,7750.691,MOST,13666413,7736,13674149,Experiment
154165,P23.edf,47,ChoseLeft,[3],3,7814,7736,7814,718,7750.691,MOST,13666413,7736,13674149,Experiment
154167,P23.edf,48,START_DRAWING,.,.,81,.,.,2,9776.843,MOST,13677496,9757,13687253,Experiment
155202,P23.edf,48,Chose_Left,[3],3,9836,9490,9836,1037,9776.843,MOST,13677496,9757,13687253,Experiment
155203,P23.edf,48,ChoseLeft,[3],3,9836,9490,9836,1038,9776.843,MOST,13677496,9757,13687253,Experiment
155205,P23.edf,49,START_DRAWING,.,.,84,81,270,2,7758.235,MOST,13692378,7739,13700117,Experiment
156173,P23.edf,49,Chose_Right,[3],3,7820,7388,7820,970,7758.235,MOST,13692378,7739,13700117,Experiment
156174,P23.edf,49,ChoseRight,[3],3,7820,7388,7820,971,7758.235,MOST,13692378,7739,13700117,Experiment
156176,P23.edf,50,START_DRAWING,.,.,77,75,392,2,44526.337,MOST,13708112,44515,13752627,Experiment
157441,P23.edf,50,TRACKER_TIME 19 13728797.330,[2],2,20760,20726,20962,1267,44526.337,MOST,13708112,44515,13752627,Experiment
159332,P23.edf,50,Chose_Left,.,.,44590,.,.,3158,44526.337,MOST,13708112,44515,13752627,Experiment
159334,P23.edf,51,START_DRAWING,.,.,86,84,126,2,10806.455,MOST,13757561,10786,13768347,Experiment
160393,P23.edf,51,Chose_Right,[3],3,10870,10796,10870,1061,10806.455,MOST,13757561,10786,13768347,Experiment
160394,P23.edf,51,ChoseRight,[3],3,10870,10796,10870,1062,10806.455,MOST,13757561,10786,13768347,Experiment
160396,P23.edf,52,START_DRAWING,.,.,79,.,.,2,5936.281,MOST,13774344,5921,13780265,Experiment
160963,P23.edf,52,Chose_Right,[3],3,5998,5700,5998,569,5936.281,MOST,13774344,5921,13780265,Experiment
160965,P23.edf,53,START_DRAWING,.,.,80,.,.,2,22118.048,MOST,13784127,22099,13806226,Experiment
161450,P23.edf,53,TRACKER_TIME 20 13788812.596,.,.,4763,4730,4956,487,22118.048,MOST,13784127,22099,13806226,Experiment
164114,P23.edf,53,Chose_Left,[3],3,22177,.,.,3151,22118.048,MOST,13784127,22099,13806226,Experiment
164115,P23.edf,53,ChoseLeft,[3],3,22177,.,.,3152,22118.048,MOST,13784127,22099,13806226,Experiment
164117,P23.edf,54,START_DRAWING,.,.,66,64,72,2,7867.571999999999,MOST,13809843,7863,13817706,Experiment
164896,P23.edf,54,Chose_Left,[3],3,7927,7584,7927,781,7867.571999999999,MOST,13809843,7863,13817706,Experiment
164897,P23.edf,54,ChoseLeft,[3],3,7927,7584,7927,782,7867.571999999999,MOST,13809843,7863,13817706,Experiment
164899,P23.edf,55,START_DRAWING,.,.,68,67,260,2,24336.379,MOST,13823260,24325,13847585,Experiment
166952,P23.edf,55,Chose_Right,[3],3,24392,24220,24392,2055,24336.379,MOST,13823260,24325,13847585,Experiment
166954,P23.edf,56,START_DRAWING,.,.,80,.,.,2,12568.18,MOST,13852809,12552,13865361,Experiment
167905,P23.edf,56,Chose_Left,[3],3,12630,12410,12630,953,12568.18,MOST,13852809,12552,13865361,Experiment
167907,P23.edf,57,START_DRAWING,.,.,77,.,.,2,7216.420999999999,MOST,13871392,7203,13878595,Experiment
168781,P23.edf,57,Chose_Right,[3],3,7278,7012,7278,876,7216.420999999999,MOST,13871392,7203,13878595,Experiment
168782,P23.edf,57,ChoseRight,[3],3,7278,7012,7278,877,7216.420999999999,MOST,13871392,7203,13878595,Experiment
168784,P23.edf,58,START_DRAWING,.,.,76,.,.,2,24450.946,MOST,13883775,24440,13908215,Experiment
171946,P23.edf,58,Chose_Left,[3],3,24514,24314,24514,3164,24450.946,MOST,13883775,24440,13908215,Experiment
171948,P23.edf,59,START_DRAWING,.,.,72,70,312,2,20652.52,MOST,13913891,20644,13934535,Experiment
173444,P23.edf,59,Chose_Right,[3],3,20714,20464,20714,1498,20652.52,MOST,13913891,20644,13934535,Experiment
173446,P23.edf,60,START_DRAWING,.,.,76,74,254,2,9962.632,MOST,13938857,9950,13948807,Experiment
174355,P23.edf,60,Chose_Left,[3],3,10024,10016,10024,911,9962.632,MOST,13938857,9950,13948807,Experiment
174357,P23.edf,61,START_DRAWING,.,.,80,78,342,2,15264.738000000001,MOST,13957623,15248,13972871,Experiment
175481,P23.edf,61,TRACKER_TIME 23 13970492.078,[3],3,12947,12926,13084,1126,15264.738000000001,MOST,13957623,15248,13972871,Experiment
175868,P23.edf,61,Chose_Left,[3],3,15326,15128,15326,1513,15264.738000000001,MOST,13957623,15248,13972871,Experiment
175869,P23.edf,61,ChoseLeft,[3],3,15326,15128,15326,1514,15264.738000000001,MOST,13957623,15248,13972871,Experiment
175871,P23.edf,62,START_DRAWING,.,.,73,71,116,2,14577.04,MOST,13976006,14570,13990576,Experiment
177209,P23.edf,62,Chose_Right,.,.,14641,14328,14641,1340,14577.04,MOST,13976006,14570,13990576,Experiment
177210,P23.edf,62,ChoseRight,.,.,14641,14328,14641,1341,14577.04,MOST,13976006,14570,13990576,Experiment
177212,P23.edf,63,START_DRAWING,.,.,82,.,.,2,10502.538,MOST,13994139,10483,14004622,Experiment
178140,P23.edf,63,Chose_Left,.,.,10563,10458,10563,930,10502.538,MOST,13994139,10483,14004622,Experiment
178142,P23.edf,64,START_DRAWING,.,.,79,77,270,2,8938.346,MOST,14008572,8922,14017494,Experiment
179025,P23.edf,64,Chose_Right,[3],3,8999,8876,8999,885,8938.346,MOST,14008572,8922,14017494,Experiment
179026,P23.edf,64,ChoseRight,[3],3,8999,8876,8999,886,8938.346,MOST,14008572,8922,14017494,Experiment
179028,P23.edf,65,START_DRAWING,.,.,77,75,102,2,8371.705,MOST,14021422,8359,14029781,Experiment
179891,P23.edf,65,Chose_Right,[3],3,8434,8366,8434,865,8371.705,MOST,14021422,8359,14029781,Experiment
179892,P23.edf,65,ChoseRight,[3],3,8434,8366,8434,866,8371.705,MOST,14021422,8359,14029781,Experiment
179894,P23.edf,66,START_DRAWING,.,.,73,72,116,2,8634.889000000001,MOST,14034589,8625,14043214,Experiment
180895,P23.edf,66,Chose_Left,[3],3,8697,8232,8697,1003,8634.889000000001,MOST,14034589,8625,14043214,Experiment
180896,P23.edf,66,ChoseLeft,[3],3,8697,8232,8697,1004,8634.889000000001,MOST,14034589,8625,14043214,Experiment
180898,P23.edf,67,START_DRAWING,.,.,83,81,306,2,9256.349,MOST,14049138,9236,14058374,Experiment
181672,P23.edf,67,Chose_Left,[3],3,9317,9214,9317,776,9256.349,MOST,14049138,9236,14058374,Experiment
181673,P23.edf,67,ChoseLeft,[3],3,9317,9214,9317,777,9256.349,MOST,14049138,9236,14058374,Experiment
181675,P23.edf,68,START_DRAWING,.,.,75,.,.,2,98982.33,MOST,14062104,98971,14161075,Experiment
183455,P23.edf,68,TRACKER_TIME 25 14091039.800,[2],2,29009,.,.,1782,98982.33,MOST,14062104,98971,14161075,Experiment
187163,P23.edf,68,TRACKER_TIME 26 14151056.016,.,.,89025,88954,89214,5490,98982.33,MOST,14062104,98971,14161075,Experiment
188229,P23.edf,68,Chose_Left,[3],3,99044,99014,99044,6556,98982.33,MOST,14062104,98971,14161075,Experiment
188230,P23.edf,68,ChoseLeft,[3],3,99044,99014,99044,6557,98982.33,MOST,14062104,98971,14161075,Experiment
188232,P23.edf,69,START_DRAWING,.,.,85,.,.,2,71123.695,MOST,14168202,71103,14239305,Experiment
190868,P23.edf,69,TRACKER_TIME 27 14211070.799,[2],2,42952,42864,43086,2638,71123.695,MOST,14168202,71103,14239305,Experiment
193583,P23.edf,69,Chose_Left,[3],3,71186,70914,71186,5353,71123.695,MOST,14168202,71103,14239305,Experiment
193585,P23.edf,70,START_DRAWING,.,.,84,81,1468,2,14323.976999999999,MOST,14244150,14306,14258456,Experiment
194893,P23.edf,70,Chose_Right,[3],3,14387,14112,14387,1310,14323.976999999999,MOST,14244150,14306,14258456,Experiment
194894,P23.edf,70,ChoseRight,[3],3,14387,14112,14387,1311,14323.976999999999,MOST,14244150,14306,14258456,Experiment
194896,P23.edf,71,START_DRAWING,.,.,83,81,142,2,11246.8,MOST,14263700,11228,14274928,Experiment
195535,P23.edf,71,TRACKER_TIME 28 14271086.302,[2],2,7467,7326,7818,641,11246.8,MOST,14263700,11228,14274928,Experiment
195858,P23.edf,71,Chose_Right,[3],3,11309,11214,11309,964,11246.8,MOST,14263700,11228,14274928,Experiment
195859,P23.edf,71,ChoseRight,[3],3,11309,11214,11309,965,11246.8,MOST,14263700,11228,14274928,Experiment
195861,P23.edf,72,START_DRAWING,.,.,82,80,106,2,5729.581999999999,MOST,14278033,5712,14283745,Experiment
196471,P23.edf,72,Chose_Right,[3],3,5792,5616,5792,612,5729.581999999999,MOST,14278033,5712,14283745,Experiment
196472,P23.edf,72,ChoseRight,[3],3,5792,5616,5792,613,5729.581999999999,MOST,14278033,5712,14283745,Experiment
196474,P23.edf,73,START_DRAWING,.,.,83,.,.,2,15507.063,MOST,14291100,15486,14306586,Experiment
198399,P23.edf,73,Chose_Right,[3],3,15567,15474,15567,1927,15507.063,MOST,14291100,15486,14306586,Experiment
198400,P23.edf,73,ChoseRight,[3],3,15567,15474,15567,1928,15507.063,MOST,14291100,15486,14306586,Experiment
198402,P23.edf,74,START_DRAWING,.,.,82,80,128,2,9584.002,MOST,14310633,9566,14320199,Experiment
199300,P23.edf,74,Chose_Left,[3],3,9646,9612,9646,900,9584.002,MOST,14310633,9566,14320199,Experiment
199302,P23.edf,75,START_DRAWING,.,.,76,74,98,2,15060.043,MOST,14323499,15044,14338543,Experiment
200001,P23.edf,75,TRACKER_TIME 29 14331100.682,.,.,7675,6764,7712,701,15060.043,MOST,14323499,15044,14338543,Experiment
200967,P23.edf,75,Chose_Right,[3],3,15118,15004,15118,1667,15060.043,MOST,14323499,15044,14338543,Experiment
200969,P23.edf,76,START_DRAWING,.,.,76,75,138,2,13755.941,MOST,14343566,13744,14357310,Experiment
202607,P23.edf,76,Chose_Right,[3],3,13819,.,.,1640,13755.941,MOST,14343566,13744,14357310,Experiment
202608,P23.edf,76,ChoseRight,[3],3,13819,.,.,1641,13755.941,MOST,14343566,13744,14357310,Experiment
202610,P23.edf,77,START_DRAWING,.,.,81,80,146,2,4962.179,MOST,14361099,4948,14366047,Experiment
203122,P23.edf,77,Chose_Left,[3],3,5028,5008,5028,514,4962.179,MOST,14361099,4948,14366047,Experiment
203123,P23.edf,77,ChoseLeft,[3],3,5028,5008,5028,515,4962.179,MOST,14361099,4948,14366047,Experiment
203125,P23.edf,78,START_DRAWING,.,.,81,79,104,2,7058.905,MOST,14369198,7040,14376238,Experiment
203827,P23.edf,78,Chose_Right,[3],3,7119,6758,7119,704,7058.905,MOST,14369198,7040,14376238,Experiment
203828,P23.edf,78,ChoseRight,[3],3,7119,6758,7119,705,7058.905,MOST,14369198,7040,14376238,Experiment
203830,P23.edf,79,START_DRAWING,.,.,71,72,214,2,6745.102,MOST,14379348,6738,14386086,Experiment
204628,P23.edf,79,Chose_Right,[3],3,6807,6798,6807,800,6745.102,MOST,14379348,6738,14386086,Experiment
204630,P23.edf,80,START_DRAWING,[2],2,87,85,234,2,5223.5109999999995,MOST,14390398,5203,14395601,Experiment
204673,P23.edf,80,TRACKER_TIME 30 14391100.203,[2],2,787,656,1044,45,5223.5109999999995,MOST,14390398,5203,14395601,Experiment
205206,P23.edf,80,Chose_Right,[3],3,5288,4978,5288,578,5223.5109999999995,MOST,14390398,5203,14395601,Experiment
205207,P23.edf,80,ChoseRight,[3],3,5288,4978,5288,579,5223.5109999999995,MOST,14390398,5203,14395601,Experiment
205209,P23.edf,81,START_DRAWING,.,.,81,.,.,2,4393.264,FEWEST,14548811,4376,14553187,Experiment
205697,P23.edf,81,Chose_Left,[3],3,4455,4234,4455,490,4393.264,FEWEST,14548811,4376,14553187,Experiment
